File: SAXS_TUTORIAL/SUBTRACTED_DATA/result/zc_001.dat
Sample description: Extrapolated to infinite dilution
Sample: Extrapolated to  c= 0.000 mg/ml  Code: P1_4_P1_Buffer
Parent(s): C:/Users/jeffries/Desktop/p3l-garcia/RNA_Polymerase_Kosinski_EMBO_course/Concentration_series/P1_4_P1_Buffer_0022.dat C:/Users/jeffries/Desktop/p3l-garcia/RNA_Polymerase_Kosinski_EMBO_course/Concentration_series/P1_3_P1_Buffer_0019.dat C:/Users/jeffries/Desktop/p3l-garcia/RNA_Polymerase_Kosinski_EMBO_course/Concentration_series/P1_2_P1_Buffer_0016.dat C:/Users/jeffries/Desktop/p3l-garcia/RNA_Polymerase_Kosinski_EMBO_course/Concentration_series/P1_1_P1_Buffer_0013.dat
 3.913000e-002  5.836755e-001  8.374581e-003
 4.738750e-002  5.541862e-001  5.495322e-003
 5.564510e-002  4.888825e-001  4.246351e-003
 6.390260e-002  4.835288e-001  3.340353e-003
 7.216020e-002  4.784197e-001  2.714116e-003
 8.041770e-002  4.486267e-001  2.362856e-003
 8.867530e-002  4.427929e-001  2.130948e-003
 9.693280e-002  4.285634e-001  1.899559e-003
 1.051900e-001  4.107953e-001  1.758985e-003
 1.134480e-001  4.077328e-001  1.637149e-003
 1.217050e-001  3.872840e-001  1.552875e-003
 1.299630e-001  3.765889e-001  1.454579e-003
 1.382210e-001  3.674301e-001  1.385302e-003
 1.464780e-001  3.564351e-001  1.299079e-003
 1.547360e-001  3.448935e-001  1.227900e-003
 1.629930e-001  3.336256e-001  1.198488e-003
 1.712510e-001  3.232746e-001  1.146966e-003
 1.795080e-001  3.091585e-001  1.081896e-003
 1.877660e-001  2.966846e-001  1.030167e-003
 1.960230e-001  2.858564e-001  9.981603e-004
 2.042810e-001  2.751149e-001  9.961346e-004
 2.125390e-001  2.610295e-001  9.758809e-004
 2.207960e-001  2.516332e-001  9.597059e-004
 2.290540e-001  2.402407e-001  9.256640e-004
 2.373110e-001  2.296662e-001  9.037221e-004
 2.455690e-001  2.176249e-001  8.733390e-004
 2.538260e-001  2.077323e-001  8.514125e-004
 2.620840e-001  1.969040e-001  8.065875e-004
 2.703410e-001  1.864155e-001  7.521360e-004
 2.785990e-001  1.766839e-001  7.180231e-004
 2.868570e-001  1.667035e-001  6.846964e-004
 2.951140e-001  1.567368e-001  6.484693e-004
 3.033720e-001  1.486135e-001  6.327581e-004
 3.116290e-001  1.396849e-001  6.033537e-004
 3.198870e-001  1.312326e-001  5.842707e-004
 3.281440e-001  1.233955e-001  5.813204e-004
 3.364020e-001  1.140533e-001  5.691330e-004
 3.446590e-001  1.067704e-001  5.524932e-004
 3.529170e-001  9.897419e-002  5.277360e-004
 3.611750e-001  9.277162e-002  5.185497e-004
 3.694320e-001  8.672007e-002  5.055957e-004
 3.776900e-001  7.944551e-002  4.837482e-004
 3.859470e-001  7.476015e-002  4.731018e-004
 3.942050e-001  6.874436e-002  4.602125e-004
 4.024620e-001  6.407492e-002  4.457035e-004
 4.107200e-001  5.837051e-002  4.297015e-004
 4.189770e-001  5.431358e-002  4.185096e-004
 4.272350e-001  5.066676e-002  4.063082e-004
 4.354920e-001  4.613104e-002  3.956994e-004
 4.437500e-001  4.225452e-002  3.937201e-004
 4.520080e-001  3.881601e-002  3.892023e-004
 4.602650e-001  3.567356e-002  3.848229e-004
 4.685230e-001  3.286368e-002  3.793054e-004
 4.767800e-001  3.045592e-002  3.652785e-004
 4.850380e-001  2.723158e-002  3.497568e-004
 4.932950e-001  2.440188e-002  3.338287e-004
 5.015530e-001  2.220916e-002  3.280112e-004
 5.098100e-001  1.982619e-002  3.160751e-004
 5.180680e-001  1.857204e-002  3.107915e-004
 5.263260e-001  1.634813e-002  3.042472e-004
 5.345830e-001  1.535615e-002  3.014976e-004
 5.428410e-001  1.383977e-002  2.906132e-004
 5.510980e-001  1.279077e-002  2.871491e-004
 5.593560e-001  1.238351e-002  2.821873e-004
 5.676130e-001  1.103870e-002  2.803288e-004
 5.758710e-001  1.023860e-002  2.715479e-004
 5.841280e-001  9.456985e-003  2.691959e-004
 5.923860e-001  8.971838e-003  2.657171e-004
 6.006440e-001  7.807449e-003  2.632634e-004
 6.089010e-001  7.484434e-003  2.596551e-004
 6.171590e-001  7.322051e-003  2.582168e-004
 6.254160e-001  7.172096e-003  2.559067e-004
 6.336740e-001  6.108250e-003  2.522912e-004
 6.419310e-001  5.729397e-003  2.511247e-004
 6.501890e-001  5.543272e-003  2.515485e-004
 6.584460e-001  5.620625e-003  2.475333e-004
 6.667040e-001  5.814515e-003  2.473870e-004
 6.749620e-001  5.496853e-003  2.446199e-004
 6.832190e-001  4.961022e-003  2.443334e-004
 6.914770e-001  5.101360e-003  2.402000e-004
 6.997340e-001  5.315213e-003  2.414383e-004
 7.079920e-001  4.542471e-003  2.400054e-004
 7.162490e-001  4.478324e-003  2.385093e-004
 7.245070e-001  4.776000e-003  2.370729e-004
 7.327640e-001  4.258566e-003  2.349684e-004
 7.410220e-001  4.701000e-003  2.359293e-004
 7.492790e-001  4.729993e-003  2.326765e-004
 7.575370e-001  4.333625e-003  2.314487e-004
 7.657950e-001  3.777368e-003  2.312095e-004
 7.740520e-001  4.303728e-003  2.322261e-004
 7.823100e-001  3.982390e-003  2.291487e-004
 7.905670e-001  4.623949e-003  2.393844e-004
 7.988250e-001  4.156294e-003  2.414990e-004
 8.070820e-001  4.030456e-003  2.447533e-004
 8.153400e-001  3.980618e-003  2.461575e-004
 8.235970e-001  3.925978e-003  2.470396e-004
 8.318550e-001  4.156809e-003  2.473167e-004
 8.401130e-001  3.555662e-003  2.508742e-004
 8.483700e-001  3.650147e-003  2.422559e-004
 8.566280e-001  3.468647e-003  2.372301e-004
 8.648850e-001  3.479066e-003  2.328769e-004
 8.731430e-001  3.411309e-003  2.336978e-004
 8.814000e-001  3.081456e-003  2.300909e-004
 8.896580e-001  3.396375e-003  2.312393e-004
 8.979150e-001  3.220478e-003  2.365901e-004
 9.061730e-001  3.422750e-003  2.408981e-004
 9.144310e-001  2.533294e-003  2.389030e-004
 9.226880e-001  2.617316e-003  2.349129e-004
 9.309460e-001  2.783250e-003  2.284248e-004
 9.392030e-001  3.087272e-003  2.263955e-004
 9.474610e-001  2.899515e-003  2.209368e-004
 9.557180e-001  2.608074e-003  2.217085e-004
 9.639760e-001  2.188294e-003  2.191932e-004
 9.722330e-001  2.123721e-003  2.174605e-004
 9.804910e-001  2.355022e-003  2.156494e-004
 9.887490e-001  2.316735e-003  2.153231e-004
 9.970060e-001  2.237221e-003  2.141407e-004
 1.005260e+000  2.203676e-003  2.119338e-004
 1.013520e+000  1.952162e-003  2.124546e-004
 1.021780e+000  1.782404e-003  2.107076e-004
 1.030040e+000  1.806074e-003  2.089703e-004
 1.038290e+000  2.156110e-003  2.081709e-004
 1.046550e+000  1.783184e-003  2.073879e-004
 1.054810e+000  1.712051e-003  2.064457e-004
 1.063070e+000  1.390316e-003  2.049475e-004
 1.071320e+000  1.886324e-003  2.047071e-004
 1.079580e+000  1.642515e-003  2.053662e-004
 1.087840e+000  1.650015e-003  2.034308e-004
 1.096100e+000  1.450493e-003  2.012659e-004
 1.104350e+000  1.509809e-003  2.018652e-004
 1.112610e+000  1.219206e-003  2.012814e-004
 1.120870e+000  1.254963e-003  1.981282e-004
 1.129130e+000  1.974007e-003  2.004910e-004
 1.137380e+000  1.679382e-003  1.990580e-004
 1.145640e+000  1.303132e-003  1.969478e-004
 1.153900e+000  1.368390e-003  1.965584e-004
 1.162160e+000  1.003875e-003  1.956013e-004
 1.170410e+000  1.024809e-003  1.937092e-004
 1.178670e+000  1.221721e-003  1.941292e-004
 1.186930e+000  1.435963e-003  1.933477e-004
 1.195190e+000  1.304272e-003  1.930510e-004
 1.203440e+000  1.049096e-003  1.898542e-004
 1.211700e+000  1.150779e-003  1.904560e-004
 1.219960e+000  1.284750e-003  1.892413e-004
 1.228220e+000  1.249059e-003  1.887601e-004
 1.236480e+000  8.336618e-004  1.876761e-004
 1.244730e+000  1.168390e-003  1.897299e-004
 1.252990e+000  1.055978e-003  1.885711e-004
 1.261250e+000  7.777941e-004  1.872256e-004
 1.269510e+000  6.340294e-004  1.858475e-004
 1.277760e+000  1.309081e-003  1.878923e-004
 1.286020e+000  8.604412e-004  1.857923e-004
 1.294280e+000  1.241978e-003  1.852294e-004
 1.302540e+000  1.185206e-003  1.844140e-004
 1.310790e+000  1.065882e-003  1.850465e-004
 1.319050e+000  1.010949e-003  1.838799e-004
 1.327310e+000  6.985662e-004  1.826646e-004
 1.335570e+000  9.318235e-004  1.819052e-004
 1.343820e+000  7.785809e-004  1.811165e-004
 1.352080e+000  5.278235e-004  1.812482e-004
 1.360340e+000  6.640368e-004  1.805277e-004
 1.368600e+000  6.921765e-004  1.841532e-004
 1.376850e+000  7.414118e-004  1.880525e-004
 1.385110e+000  9.129779e-004  1.902355e-004
 1.393370e+000  9.141471e-004  1.916515e-004
 1.401630e+000  9.399191e-004  1.933032e-004
 1.409880e+000  7.918235e-004  1.947270e-004
 1.418140e+000  5.414559e-004  1.976401e-004
 1.426400e+000  9.863897e-004  1.955541e-004
 1.434660e+000  7.407794e-004  1.884049e-004
 1.442910e+000  6.585441e-004  1.860976e-004
 1.451170e+000  9.876471e-004  1.852915e-004
 1.459430e+000  8.337426e-004  1.823248e-004
 1.467690e+000  7.146765e-004  1.821292e-004
 1.475940e+000  5.123015e-004  1.813071e-004
 1.484200e+000  4.580515e-004  1.791012e-004
 1.492460e+000  4.988456e-004  1.791691e-004
 1.500720e+000  8.734191e-004  1.786293e-004
 1.508970e+000  5.174265e-004  1.775262e-004
 1.517230e+000  8.006324e-004  1.767726e-004
 1.525490e+000  3.602059e-004  1.771348e-004
 1.533750e+000  4.871838e-004  1.757540e-004
 1.542000e+000  4.560956e-004  1.745779e-004
 1.550260e+000  4.211324e-004  1.748077e-004
 1.558520e+000  7.523382e-004  1.746289e-004
 1.566780e+000  3.929632e-004  1.736257e-004
 1.575030e+000  6.924265e-004  1.732960e-004
 1.583290e+000  5.189632e-004  1.729843e-004
 1.591550e+000  5.591176e-004  1.723021e-004
 1.599810e+000  5.934632e-004  1.712128e-004
 1.608060e+000  4.488897e-004  1.706340e-004
 1.616320e+000  4.393088e-004  1.704046e-004
 1.624580e+000  5.075221e-004  1.709988e-004
 1.632840e+000  6.016397e-004  1.698840e-004
 1.641100e+000  3.683529e-004  1.694709e-004
 1.649350e+000  7.486912e-004  1.684026e-004
 1.657610e+000  5.652647e-004  1.680669e-004
 1.665870e+000  4.075809e-004  1.677028e-004
 1.674130e+000  4.851544e-004  1.677886e-004
 1.682380e+000  4.018676e-004  1.656926e-004
 1.690640e+000  4.639559e-004  1.673679e-004
 1.698900e+000  1.128824e-004  1.666421e-004
 1.707160e+000  5.004265e-004  1.658928e-004
 1.715410e+000  4.887647e-004  1.650999e-004
 1.723670e+000  3.353015e-004  1.655928e-004
 1.731930e+000  1.557941e-004  1.657951e-004
 1.740190e+000  5.852574e-004  1.648844e-004
 1.748440e+000  3.384044e-004  1.644671e-004
 1.756700e+000  5.050515e-004  1.651549e-004
 1.764960e+000  5.809118e-004  1.636866e-004
 1.773220e+000  4.170074e-004  1.632694e-004
 1.781470e+000  6.307206e-004  1.641176e-004
 1.789730e+000  3.760368e-004  1.636915e-004
 1.797990e+000  6.034706e-004  1.627432e-004
 1.806250e+000  3.465221e-004  1.622710e-004
 1.814500e+000  2.718456e-004  1.612346e-004
 1.822760e+000  4.888824e-004  1.624666e-004
 1.831020e+000  3.339412e-004  1.636610e-004
 1.839280e+000  2.522868e-004  1.635001e-004
 1.847530e+000  5.214044e-004  1.635830e-004
 1.855790e+000  3.454118e-004  1.622232e-004
 1.864050e+000  2.311176e-004  1.627602e-004
 1.872310e+000  4.519338e-004  1.614282e-004
 1.880560e+000  3.019559e-004  1.602132e-004
 1.888820e+000  2.783162e-004  1.603916e-004
 1.897080e+000  4.916250e-004  1.607578e-004
 1.905340e+000  3.852721e-004  1.598519e-004
 1.913590e+000  4.914779e-004  1.596190e-004
 1.921850e+000  3.980882e-004  1.582319e-004
 1.930110e+000  4.866103e-004  1.584988e-004
 1.938370e+000  1.096765e-004  1.578804e-004
 1.946620e+000  1.895074e-004  1.575182e-004
 1.954880e+000  1.122794e-004  1.624599e-004
 1.963140e+000 -6.485294e-005  1.641579e-004
 1.971400e+000  1.964044e-004  1.648643e-004
 1.979650e+000  7.224044e-004  1.676437e-004
 1.987910e+000  2.327868e-004  1.679968e-004
 1.996170e+000  5.528015e-004  1.690810e-004
 2.004430e+000  4.414706e-005  1.696107e-004
 2.012690e+000  4.246544e-004  1.675850e-004
 2.020940e+000  3.368750e-004  1.647076e-004
 2.029200e+000  5.026029e-004  1.634543e-004
 2.037460e+000  4.057059e-004  1.618962e-004
 2.045720e+000  4.340882e-004  1.616485e-004
 2.053970e+000  3.981838e-004  1.600968e-004
 2.062230e+000  3.157574e-004  1.608665e-004
 2.070490e+000  3.730809e-004  1.598838e-004
 2.078750e+000  4.829779e-004  1.586327e-004
 2.087000e+000 -4.031618e-005  1.581862e-004
 2.095260e+000  1.473529e-004  1.580832e-004
 2.103520e+000  6.907500e-004  1.587079e-004
 2.111780e+000  1.290441e-004  1.565979e-004
 2.120030e+000  4.849265e-005  1.571170e-004
 2.128290e+000  4.605735e-004  1.569040e-004
 2.136550e+000  4.023603e-004  1.558265e-004
 2.144810e+000  3.997574e-004  1.556907e-004
 2.153060e+000  4.187206e-004  1.556685e-004
 2.161320e+000  1.890221e-004  1.536062e-004
 2.169580e+000  3.676029e-004  1.540705e-004
 2.177840e+000  3.124044e-004  1.536204e-004
 2.186090e+000  2.066618e-004  1.530373e-004
 2.194350e+000  2.702132e-004  1.528851e-004
 2.202610e+000  2.658824e-004  1.534183e-004
 2.210870e+000 -6.404412e-005  1.527524e-004
 2.219120e+000  1.630588e-004  1.523427e-004
 2.227380e+000  4.817647e-004  1.527302e-004
 2.235640e+000  1.190956e-004  1.520332e-004
 2.243900e+000  2.284265e-004  1.517979e-004
 2.252150e+000  1.953015e-004  1.513968e-004
 2.260410e+000  2.486471e-004  1.515241e-004
 2.268670e+000  2.301912e-004  1.529629e-004
 2.276930e+000  5.855735e-004  1.519966e-004
 2.285180e+000  3.149118e-004  1.517945e-004
 2.293440e+000  5.101471e-005  1.523243e-004
 2.301700e+000  9.702206e-005  1.530727e-004
 2.309960e+000  3.488971e-004  1.523816e-004
 2.318210e+000  3.375074e-004  1.524040e-004
 2.326470e+000  3.088162e-004  1.517860e-004
 2.334730e+000  1.436544e-004  1.499148e-004
 2.342990e+000  2.757794e-004  1.506724e-004
 2.351240e+000  4.449779e-004  1.507366e-004
 2.359500e+000  8.761765e-005  1.496606e-004
 2.367760e+000  5.752721e-004  1.498177e-004
 2.376020e+000  2.331838e-004  1.497939e-004
 2.384270e+000  3.716176e-005  1.484211e-004
 2.392530e+000  3.268676e-004  1.474406e-004
 2.400790e+000  1.016176e-004  1.470727e-004
 2.409050e+000  1.729044e-004  1.472771e-004
 2.417310e+000  6.291176e-005  1.462854e-004
 2.425560e+000  2.742206e-004  1.469103e-004
 2.433820e+000  3.790000e-004  1.467949e-004
 2.442080e+000  2.976176e-004  1.466952e-004
 2.450340e+000  4.206250e-004  1.467730e-004
 2.458590e+000  2.240809e-004  1.468562e-004
 2.466850e+000  2.830956e-004  1.458410e-004
 2.475110e+000  2.317794e-004  1.457390e-004
 2.483370e+000  1.952794e-004  1.458299e-004
 2.491620e+000  3.212353e-004  1.453810e-004
 2.499880e+000  1.865735e-004  1.447835e-004
 2.508140e+000 -5.685294e-005  1.441873e-004
 2.516400e+000  3.366912e-004  1.450454e-004
 2.524650e+000  4.853676e-004  1.445629e-004
 2.532910e+000  2.974118e-004  1.443129e-004
 2.541170e+000  2.658603e-004  1.490639e-004
 2.549430e+000  3.814118e-004  1.512748e-004
 2.557680e+000 -7.152941e-005  1.516119e-004
 2.565940e+000  3.976471e-004  1.532758e-004
 2.574200e+000  1.867647e-004  1.544506e-004
 2.582460e+000 -5.679412e-005  1.550869e-004
 2.590710e+000  4.931397e-004  1.558882e-004
 2.598970e+000  3.537721e-004  1.515902e-004
 2.607230e+000  2.435441e-004  1.511877e-004
 2.615490e+000  4.809706e-004  1.489649e-004
 2.623740e+000 -7.238235e-005  1.484720e-004
 2.632000e+000  4.668897e-004  1.487741e-004
 2.640260e+000  2.191103e-004  1.481864e-004
 2.648520e+000 -6.891176e-005  1.462044e-004
 2.656770e+000  3.612132e-004  1.464014e-004
 2.665030e+000  2.561544e-004  1.451657e-004
 2.673290e+000  1.976985e-004  1.443951e-004
 2.681550e+000  2.914706e-005  1.445674e-004
 2.689800e+000 -5.364706e-005  1.445539e-004
 2.698060e+000  3.358676e-004  1.433004e-004
 2.706320e+000  2.332721e-004  1.428317e-004
 2.714580e+000  2.086103e-004  1.436853e-004
 2.722830e+000  2.718382e-004  1.429268e-004
 2.731090e+000  2.092206e-004  1.421433e-004
 2.739350e+000  1.887426e-004  1.423271e-004
 2.747610e+000  3.084412e-004  1.429321e-004
 2.755860e+000  3.143971e-004  1.420946e-004
 2.764120e+000  3.653162e-004  1.417823e-004
 2.772380e+000  3.098162e-004  1.423152e-004
 2.780640e+000  3.248382e-004  1.418901e-004
 2.788900e+000  6.014706e-006  1.407551e-004
 2.797150e+000  2.709706e-004  1.410923e-004
 2.805410e+000  1.695735e-004  1.411293e-004
 2.813670e+000  1.977941e-006  1.401252e-004
 2.821930e+000  3.614632e-004  1.407792e-004
 2.830180e+000  4.859265e-004  1.406754e-004
 2.838440e+000  6.202941e-005  1.397879e-004
 2.846700e+000  4.950588e-004  1.397821e-004
 2.854960e+000 -1.055074e-004  1.397578e-004
 2.863210e+000  1.781544e-004  1.391273e-004
 2.871470e+000  3.009485e-004  1.391271e-004
 2.879730e+000  2.365515e-004  1.389874e-004
 2.887990e+000  1.276176e-004  1.378886e-004
 2.896240e+000  1.307353e-005  1.379751e-004
 2.904500e+000  2.308088e-004  1.380283e-004
 2.912760e+000  8.592647e-005  1.379093e-004
 2.921020e+000  3.662721e-004  1.386843e-004
 2.929270e+000  1.855294e-004  1.376992e-004
 2.937530e+000  3.494853e-004  1.375505e-004
 2.945790e+000  3.502574e-004  1.381755e-004
 2.954050e+000  1.020956e-004  1.372465e-004
 2.962300e+000  2.145221e-004  1.374338e-004
 2.970560e+000 -1.477647e-004  1.370708e-004
 2.978820e+000 -9.734559e-005  1.367496e-004
 2.987080e+000  5.606618e-005  1.365128e-004
 2.995330e+000  8.144118e-005  1.369890e-004
 3.003590e+000  1.191765e-004  1.360276e-004
 3.011850e+000  1.747794e-004  1.351032e-004
 3.020110e+000 -1.508824e-005  1.358060e-004
 3.028360e+000  4.768235e-004  1.362171e-004
 3.036620e+000  1.373235e-004  1.356276e-004
 3.044880e+000  4.766176e-005  1.354856e-004
 3.053140e+000  1.051838e-004  1.359274e-004
 3.061390e+000  2.309706e-004  1.361131e-004
 3.069650e+000 -4.491176e-005  1.349175e-004
 3.077910e+000 -8.813971e-005  1.348038e-004
 3.086170e+000  3.273015e-004  1.356951e-004
 3.094420e+000  1.296471e-004  1.351707e-004
 3.102680e+000  2.321765e-004  1.352481e-004
 3.110940e+000  8.544118e-005  1.342912e-004
 3.119200e+000  3.454044e-004  1.372065e-004
 3.127450e+000  2.343088e-004  1.395249e-004
 3.135710e+000  2.108971e-004  1.408850e-004
 3.143970e+000  2.949265e-005  1.422280e-004
 3.152230e+000 -2.030147e-005  1.433868e-004
 3.160480e+000  3.007206e-004  1.439223e-004
 3.168740e+000  1.331691e-004  1.448390e-004
 3.177000e+000  2.510074e-004  1.454690e-004
 3.185260e+000  1.930221e-004  1.418954e-004
 3.193520e+000  2.788971e-004  1.408410e-004
 3.201770e+000  2.941176e-004  1.397085e-004
 3.210030e+000  2.506029e-004  1.389422e-004
 3.218290e+000  3.860221e-004  1.390310e-004
 3.226550e+000 -4.611029e-005  1.378518e-004
 3.234800e+000  3.333971e-004  1.380457e-004
 3.243060e+000  2.130956e-004  1.373878e-004
 3.251320e+000  1.381324e-004  1.370464e-004
 3.259580e+000  2.894632e-004  1.370107e-004
 3.267830e+000  3.563971e-004  1.359010e-004
 3.276090e+000  2.092426e-004  1.356194e-004
 3.284350e+000  1.918309e-004  1.358063e-004
 3.292610e+000  1.503456e-004  1.356001e-004
 3.300860e+000  1.842647e-004  1.350231e-004
 3.309120e+000  8.504412e-005  1.357469e-004
 3.317380e+000  8.919118e-005  1.352826e-004
 3.325640e+000  2.060809e-004  1.351224e-004
 3.333890e+000  1.203971e-004  1.349558e-004
 3.342150e+000  2.897206e-004  1.349232e-004
 3.350410e+000  2.343603e-004  1.343543e-004
 3.358670e+000  1.316985e-004  1.351954e-004
 3.366920e+000  2.753309e-004  1.341599e-004
 3.375180e+000  2.949853e-004  1.342882e-004
 3.383440e+000  2.207426e-004  1.329672e-004
 3.391700e+000  4.136765e-005  1.332227e-004
 3.399950e+000  7.940441e-005  1.335638e-004
 3.408210e+000  1.486838e-004  1.322751e-004
 3.416470e+000  4.973529e-005  1.318351e-004
 3.424730e+000  2.851544e-004  1.323416e-004
 3.432980e+000  5.736765e-005  1.319732e-004
 3.441240e+000  4.286765e-006  1.315235e-004
 3.449500e+000  3.303603e-004  1.322926e-004
 3.457760e+000  1.498382e-004  1.323460e-004
 3.466010e+000 -1.269485e-004  1.311728e-004
 3.474270e+000  1.313897e-004  1.316703e-004
 3.482530e+000  1.259044e-004  1.321676e-004
 3.490790e+000 -5.716176e-005  1.315857e-004
 3.499040e+000  1.780000e-004  1.317596e-004
 3.507300e+000 -7.861029e-005  1.315721e-004
 3.515560e+000  1.430221e-004  1.310959e-004
 3.523820e+000  3.721324e-005  1.313423e-004
 3.532070e+000  2.536618e-004  1.319990e-004
 3.540330e+000  1.554485e-004  1.316034e-004
 3.548590e+000 -5.044853e-005  1.313894e-004
 3.556850e+000  7.110294e-006  1.312985e-004
 3.565100e+000  1.723529e-004  1.314536e-004
 3.573360e+000  2.647868e-004  1.322629e-004
 3.581620e+000  2.066618e-004  1.316100e-004
 3.589880e+000  1.907059e-004  1.316508e-004
 3.598140e+000  2.920809e-004  1.320881e-004
 3.606390e+000  3.055074e-004  1.318699e-004
 3.614650e+000  2.035000e-004  1.313412e-004
 3.622910e+000 -3.269118e-005  1.315771e-004
 3.631170e+000 -7.470588e-006  1.315414e-004
 3.639420e+000 -7.301471e-006  1.318757e-004
 3.647680e+000 -8.557353e-005  1.313863e-004
 3.655940e+000  4.287500e-005  1.317345e-004
 3.664200e+000  1.681765e-004  1.317538e-004
 3.672450e+000  2.856985e-004  1.323433e-004
 3.680710e+000  3.142868e-004  1.325737e-004
 3.688970e+000  3.438015e-004  1.321115e-004
 3.697230e+000 -4.820588e-005  1.319152e-004
 3.705480e+000  3.822794e-004  1.355999e-004
 3.713740e+000  3.976544e-004  1.384371e-004
 3.722000e+000  3.346103e-004  1.394340e-004
 3.730260e+000  1.347426e-004  1.406162e-004
 3.738510e+000  1.272132e-004  1.417579e-004
 3.746770e+000  1.734632e-004  1.416637e-004
 3.755030e+000 -3.436765e-005  1.428701e-004
 3.763290e+000  2.207206e-004  1.414404e-004
 3.771540e+000  7.889706e-005  1.396020e-004
 3.779800e+000 -5.263971e-005  1.380529e-004
 3.788060e+000 -1.124779e-004  1.370818e-004
 3.796320e+000  3.480588e-004  1.380451e-004
 3.804570e+000  6.389706e-005  1.370386e-004
 3.812830e+000  6.618382e-005  1.362757e-004
 3.821090e+000  2.227721e-004  1.359726e-004
 3.829350e+000  1.418750e-004  1.360485e-004
 3.837600e+000  1.913309e-004  1.352189e-004
 3.845860e+000  1.319706e-004  1.359472e-004
 3.854120e+000  1.346765e-004  1.352631e-004
 3.862380e+000  1.812574e-004  1.344748e-004
 3.870630e+000  4.507353e-006  1.347271e-004
 3.878890e+000  2.888529e-004  1.348049e-004
 3.887150e+000  1.142279e-004  1.347229e-004
 3.895410e+000  1.630368e-004  1.348474e-004
 3.903660e+000  1.904338e-004  1.354075e-004
 3.911920e+000  1.713235e-005  1.349932e-004
 3.920180e+000  4.982353e-005  1.352490e-004
 3.928440e+000  6.577206e-005  1.351479e-004
 3.936690e+000  1.343235e-004  1.363375e-004
 3.944950e+000  1.232206e-004  1.356984e-004
 3.953210e+000  5.136324e-004  1.357078e-004
 3.961470e+000  1.907574e-004  1.357592e-004
 3.969730e+000  1.846691e-004  1.362779e-004
 3.977980e+000  3.080147e-005  1.355209e-004
 3.986240e+000  7.942647e-005  1.358609e-004
 3.994500e+000  3.419412e-004  1.367162e-004
 4.002760e+000  2.863456e-004  1.360607e-004
 4.011010e+000  4.229779e-004  1.361852e-004
 4.019270e+000  1.040515e-004  1.361056e-004
 4.027530e+000  2.028456e-004  1.361817e-004
 4.035790e+000  1.795147e-004  1.364946e-004
 4.044040e+000  4.279412e-006  1.369188e-004
 4.052300e+000  4.611765e-005  1.361113e-004
 4.060560e+000  7.077941e-005  1.360260e-004
 4.068820e+000  2.810441e-004  1.368007e-004
 4.077070e+000  1.698529e-004  1.364433e-004
 4.085330e+000  2.829265e-004  1.362540e-004
 4.093590e+000  1.225956e-004  1.360018e-004
 4.101850e+000  1.238309e-004  1.357177e-004
 4.110100e+000 -1.488897e-004  1.362762e-004
 4.118360e+000  1.562574e-004  1.357693e-004
 4.126620e+000  1.203676e-004  1.355395e-004
 4.134880e+000  2.448750e-004  1.356958e-004
 4.143130e+000  3.415294e-004  1.357801e-004
 4.151390e+000  2.730588e-004  1.356044e-004
 4.159650e+000  2.169779e-004  1.361079e-004
 4.167910e+000  1.362353e-004  1.358337e-004
 4.176160e+000  7.899265e-005  1.370467e-004
 4.184420e+000  1.865221e-004  1.366132e-004
 4.192680e+000  3.432500e-004  1.367059e-004
 4.200940e+000  1.248529e-005  1.362848e-004
 4.209190e+000  9.900735e-005  1.374237e-004
 4.217450e+000  3.028897e-004  1.372224e-004
 4.225710e+000  5.922794e-005  1.368736e-004
 4.233970e+000 -6.536765e-005  1.366209e-004
 4.242220e+000  2.852574e-004  1.373572e-004
 4.250480e+000  5.354412e-005  1.376597e-004
 4.258740e+000  3.469853e-004  1.370031e-004
 4.267000e+000  4.393088e-004  1.378718e-004
 4.275250e+000  1.175882e-004  1.381019e-004
 4.283510e+000 -6.183824e-006  1.385396e-004
 4.291770e+000 -2.344853e-005  1.432179e-004
 4.300030e+000  3.446397e-004  1.455604e-004
 4.308280e+000  3.577353e-004  1.475843e-004
 4.316540e+000  8.255147e-005  1.493529e-004
 4.324800e+000  2.500000e-004  1.503377e-004
 4.333060e+000  1.290441e-004  1.519987e-004
 4.341310e+000  1.816176e-006  1.536602e-004
 4.349570e+000  7.213235e-005  1.493372e-004
 4.357830e+000  5.936765e-005  1.469908e-004
 4.366090e+000  3.593824e-004  1.463725e-004
 4.374350e+000  2.244779e-004  1.454157e-004
 4.382600e+000  2.157426e-004  1.447814e-004
 4.390860e+000  4.827941e-005  1.445821e-004
 4.399120e+000  3.327941e-005  1.440788e-004
 4.407380e+000  9.913235e-005  1.437939e-004
 4.415630e+000  2.675147e-004  1.440460e-004
 4.423890e+000  2.636544e-004  1.440545e-004
 4.432150e+000 -9.983088e-005  1.434007e-004
 4.440410e+000  1.067500e-004  1.427508e-004
 4.448660e+000  3.066985e-004  1.431882e-004
 4.456920e+000  2.983971e-004  1.424286e-004
 4.465180e+000  8.275735e-005  1.426222e-004
 4.473440e+000  1.041250e-004  1.422914e-004
 4.481690e+000  6.466838e-004  1.426640e-004
 4.489950e+000  3.501912e-004  1.424382e-004
 4.498210e+000  2.612868e-004  1.412501e-004
 4.506470e+000  1.476103e-004  1.415160e-004
 4.514720e+000 -1.777353e-004  1.415646e-004
 4.522980e+000  2.673897e-004  1.420760e-004
 4.531240e+000  1.795294e-004  1.419252e-004
 4.539500e+000 -5.224265e-005  1.412229e-004
 4.547750e+000  3.328382e-004  1.417444e-004
 4.556010e+000  1.649853e-004  1.413693e-004
 4.564270e+000  8.925735e-005  1.423066e-004
 4.572530e+000  1.686029e-005  1.409302e-004
 4.580780e+000  3.035735e-004  1.413096e-004
 4.589040e+000 -1.124118e-004  1.415221e-004
 4.597300e+000 -2.280882e-005  1.422743e-004
 4.605560e+000  5.893382e-005  1.414089e-004
 4.613810e+000  3.288382e-004  1.418517e-004
 4.622070e+000  2.590662e-004  1.419857e-004
 4.630330e+000  5.369853e-005  1.416940e-004
 4.638590e+000  2.405515e-004  1.414183e-004
 4.646840e+000  2.068456e-004  1.415762e-004
 4.655100e+000  1.299926e-004  1.416602e-004
 4.663360e+000  1.858456e-004  1.412915e-004
 4.671620e+000  1.456912e-004  1.413279e-004
 4.679870e+000  1.290735e-004  1.410138e-004
 4.688130e+000  2.237426e-004  1.418937e-004
 4.696390e+000  6.345588e-005  1.425290e-004
 4.704650e+000  2.773676e-004  1.422812e-004
 4.712900e+000  1.379853e-004  1.411017e-004
 4.721160e+000  1.448529e-004  1.419299e-004
 4.729420e+000  3.416912e-004  1.426090e-004
 4.737680e+000  1.014706e-005  1.420171e-004
 4.745940e+000  2.987132e-004  1.421406e-004
 4.754190e+000  4.770000e-004  1.431626e-004
 4.762450e+000  1.499338e-004  1.431758e-004
 4.770710e+000  1.738971e-004  1.418565e-004
 4.778970e+000  2.267647e-005  1.409340e-004
 4.787220e+000  1.374485e-004  1.428512e-004
 4.795480e+000  1.696324e-004  1.426276e-004
 4.803740e+000  6.436029e-005  1.421038e-004
 4.812000e+000  1.159559e-004  1.410835e-004
 4.820250e+000  1.894118e-005  1.414392e-004
 4.828510e+000  3.034044e-004  1.421946e-004
 4.836770e+000  2.320662e-004  1.430321e-004
 4.845030e+000  2.359926e-004  1.420369e-004
 4.853280e+000  5.271176e-004  1.419333e-004
 4.861540e+000  2.803603e-004  1.422463e-004
 4.869800e+000  2.287279e-004  1.466517e-004
 4.878060e+000  3.286985e-004  1.490326e-004
 4.886310e+000  1.020588e-005  1.517360e-004
 4.894570e+000 -5.169118e-006  1.532974e-004
 4.902830e+000  3.636838e-004  1.564812e-004
 4.911090e+000  2.593750e-004  1.565231e-004
 4.919340e+000  1.709926e-004  1.581594e-004
 4.927600e+000  1.213676e-004  1.595490e-004
 4.935860e+000  7.469853e-005  1.541422e-004
 4.944120e+000  1.523676e-004  1.522130e-004
 4.952370e+000  1.383897e-004  1.512687e-004
 4.960630e+000  4.568382e-004  1.516739e-004
 4.968890e+000  2.687279e-004  1.507051e-004
 4.977150e+000  3.285882e-004  1.501748e-004
 4.985400e+000  2.161691e-004  1.492161e-004
 4.993660e+000 -4.588235e-006  1.489999e-004
 5.001920e+000  1.985368e-004  1.496822e-004
 5.010180e+000  1.263162e-004  1.494771e-004
 5.018430e+000 -9.835294e-005  1.479550e-004
 5.026690e+000  1.296029e-004  1.500037e-004
 5.034950e+000  8.273529e-005  1.488392e-004
 5.043210e+000 -6.336029e-005  1.487785e-004
 5.051460e+000  7.212500e-005  1.480445e-004
 5.059720e+000  4.984265e-004  1.494066e-004
 5.067980e+000 -1.916176e-005  1.488325e-004
 5.076240e+000  1.963603e-004  1.486130e-004
 5.084490e+000  1.392426e-004  1.484040e-004
 5.092750e+000  1.774559e-004  1.482573e-004
 5.101010e+000 -1.106544e-004  1.485677e-004
 5.109270e+000  1.354485e-004  1.490472e-004
 5.117520e+000  2.034412e-004  1.489418e-004
 5.125780e+000  3.546029e-004  1.490045e-004
 5.134040e+000  2.184559e-004  1.483995e-004
 5.142300e+000 -1.016691e-004  1.480964e-004
 5.150560e+000 -7.463235e-006  1.490212e-004
 5.158810e+000  8.196324e-005  1.491629e-004
 5.167070e+000  2.520074e-004  1.491593e-004
 5.175330e+000  1.214485e-004  1.484230e-004
 5.183590e+000  2.507279e-004  1.484547e-004
 5.191840e+000  1.508824e-004  1.476270e-004
 5.200100e+000 -2.358824e-005  1.483280e-004
 5.208360e+000  3.478603e-004  1.476801e-004
 5.216620e+000  1.346691e-004  1.474694e-004
 5.224870e+000  2.049044e-004  1.478932e-004
 5.233130e+000  4.357279e-004  1.479889e-004
 5.241390e+000  1.428971e-004  1.480540e-004
 5.249650e+000  1.453529e-004  1.483273e-004
 5.257900e+000  3.919485e-004  1.480427e-004
 5.266160e+000  5.464926e-004  1.489196e-004
 5.274420e+000  2.860735e-004  1.480075e-004
 5.282680e+000  1.635147e-004  1.480371e-004
 5.290930e+000  6.859559e-005  1.481284e-004
 5.299190e+000 -1.647059e-006  1.482385e-004
 5.307450e+000  1.802868e-004  1.488952e-004
 5.315710e+000  5.403676e-005  1.480908e-004
 5.323960e+000  2.789853e-004  1.493640e-004
 5.332220e+000  2.015147e-004  1.483351e-004
 5.340480e+000  1.492279e-004  1.482043e-004
 5.348740e+000  2.538824e-004  1.483630e-004
 5.356990e+000  2.897279e-004  1.478779e-004
 5.365250e+000 -1.028162e-004  1.477193e-004
 5.373510e+000  1.628309e-004  1.473607e-004
 5.381770e+000  2.825441e-004  1.479557e-004
 5.390020e+000  4.247941e-004  1.482178e-004
 5.398280e+000  2.477868e-004  1.476397e-004
 5.406540e+000  4.387279e-004  1.479417e-004
 5.414800e+000  2.464926e-004  1.477213e-004
 5.423050e+000  1.706912e-004  1.484302e-004
 5.431310e+000  3.068824e-004  1.485354e-004
 5.439570e+000  3.504779e-004  1.490568e-004
 5.447830e+000  2.987721e-004  1.480521e-004
 5.456080e+000  2.410000e-004  1.541096e-004
 5.464340e+000  3.562574e-004  1.592968e-004
 5.472600e+000  1.279779e-004  1.607811e-004
 5.480860e+000 -1.061544e-004  1.625804e-004
 5.489110e+000  5.353676e-005  1.658470e-004
 5.497370e+000  3.243235e-004  1.677643e-004
 5.505630e+000  6.611765e-005  1.693704e-004
 5.513890e+000  1.723456e-004  1.655368e-004
 5.522140e+000  2.301029e-004  1.630960e-004
 5.530400e+000  2.343676e-004  1.608819e-004
 5.538660e+000  5.890441e-004  1.605814e-004
 5.546920e+000 -2.756618e-005  1.588690e-004
 5.555180e+000 -3.430368e-004  1.584336e-004
 5.563430e+000  2.168088e-004  1.580390e-004
 5.571690e+000  1.561103e-004  1.569949e-004
 5.579950e+000 -3.279412e-006  1.573068e-004
 5.588210e+000  4.107868e-004  1.576757e-004
 5.596460e+000 -1.172059e-004  1.576171e-004
 5.604720e+000  3.250074e-004  1.575028e-004
 5.612980e+000  2.393309e-004  1.565946e-004
 5.621240e+000  3.285956e-004  1.559020e-004
 5.629490e+000  1.147132e-004  1.553835e-004
 5.637750e+000  8.109559e-005  1.558460e-004
 5.646010e+000  3.762059e-004  1.551904e-004
 5.654270e+000  1.117500e-004  1.553095e-004
 5.662520e+000  8.324265e-005  1.552743e-004
 5.670780e+000  3.142279e-004  1.545302e-004
 5.679040e+000  2.147721e-004  1.547529e-004
 5.687300e+000  1.803750e-004  1.553576e-004
 5.695550e+000  1.663897e-004  1.551389e-004
 5.703810e+000  1.170882e-004  1.543860e-004
 5.712070e+000  2.038015e-004  1.545555e-004
 5.720330e+000  2.179632e-004  1.542012e-004
 5.728580e+000  1.095588e-004  1.541204e-004
 5.736840e+000 -3.084559e-005  1.547638e-004
 5.745100e+000  2.036103e-004  1.546405e-004
 5.753360e+000  1.948603e-004  1.542477e-004
 5.761610e+000  5.582574e-004  1.544509e-004
 5.769870e+000  1.336029e-005  1.542368e-004
 5.778130e+000  2.930221e-004  1.537399e-004
 5.786390e+000  1.591029e-004  1.537074e-004
 5.794640e+000 -1.917279e-004  1.536098e-004
 5.802900e+000  4.350368e-004  1.546527e-004
 5.811160e+000  2.542132e-004  1.543211e-004
 5.819420e+000  2.928015e-004  1.542574e-004
 5.827670e+000  3.300882e-004  1.540817e-004
 5.835930e+000 -1.108382e-004  1.536625e-004
 5.844190e+000  6.602941e-005  1.532310e-004
 5.852450e+000  4.985882e-004  1.540899e-004
 5.860700e+000  1.277426e-004  1.540050e-004
 5.868960e+000  2.036985e-004  1.533663e-004
 5.877220e+000  2.619338e-004  1.540734e-004
 5.885480e+000  3.222941e-004  1.537209e-004
 5.893730e+000 -8.254412e-005  1.537543e-004
 5.901990e+000  2.512647e-004  1.534596e-004
 5.910250e+000  7.148529e-005  1.530388e-004
 5.918510e+000  3.247721e-004  1.535165e-004
 5.926770e+000  6.894118e-005  1.533763e-004
 5.935020e+000  2.299191e-004  1.532437e-004
 5.943280e+000  1.184338e-004  1.523597e-004
 5.951540e+000  1.575368e-004  1.529717e-004
 5.959800e+000  1.901912e-004  1.536130e-004
 5.968050e+000  1.554853e-004  1.539985e-004
 5.976310e+000  4.218235e-004  1.549866e-004
 5.984570e+000  1.289485e-004  1.534687e-004
 5.992830e+000  1.608676e-004  1.541318e-004
 6.001080e+000  2.129779e-004  1.543394e-004
 6.009340e+000  1.774191e-004  1.538467e-004
 6.017600e+000  3.300368e-004  1.546251e-004
 6.025860e+000  2.760000e-004  1.544586e-004
 6.034110e+000  2.658088e-004  1.555753e-004
 6.042370e+000  1.387206e-004  1.621034e-004
 6.050630e+000  2.500221e-004  1.658310e-004
 6.058890e+000  2.565515e-004  1.683421e-004
 6.067140e+000 -9.750000e-006  1.707813e-004
 6.075400e+000  8.194118e-005  1.727031e-004
 6.083660e+000  3.000368e-004  1.747940e-004
 6.091920e+000  3.799779e-004  1.768216e-004
 6.100170e+000  2.915074e-004  1.694867e-004
 6.108430e+000  1.255221e-004  1.659848e-004
 6.116690e+000  2.763015e-004  1.659307e-004
 6.124950e+000  3.434926e-004  1.644165e-004
 6.133200e+000  2.769191e-004  1.642029e-004
 6.141460e+000  1.747794e-004  1.633380e-004
 6.149720e+000  2.140809e-004  1.627079e-004
 6.157980e+000  7.802206e-005  1.626889e-004
 6.166230e+000  9.635294e-005  1.620644e-004
 6.174490e+000  9.063235e-005  1.627421e-004
 6.182750e+000 -6.884559e-005  1.620593e-004
 6.191010e+000  3.153897e-004  1.623746e-004
 6.199260e+000 -2.888235e-005  1.628045e-004
 6.207520e+000  2.297647e-004  1.616770e-004
 6.215780e+000  3.515882e-004  1.617165e-004
 6.224040e+000  9.959559e-005  1.613423e-004
 6.232290e+000  2.269632e-004  1.619000e-004
 6.240550e+000  1.527721e-004  1.619554e-004
 6.248810e+000 -4.065515e-004  1.608694e-004
 6.257070e+000  3.905588e-004  1.614082e-004
 6.265320e+000  3.802132e-004  1.610615e-004
 6.273580e+000 -4.565441e-005  1.606032e-004
 6.281840e+000  1.172941e-004  1.617957e-004
 6.290100e+000  5.966176e-005  1.620848e-004
 6.298350e+000  8.603676e-005  1.610174e-004
 6.306610e+000 -6.729412e-005  1.602521e-004
 6.314870e+000  1.918971e-004  1.609511e-004
 6.323130e+000  2.108309e-004  1.599810e-004
 6.331390e+000  1.897721e-004  1.606518e-004
 6.339640e+000  2.416838e-004  1.599969e-004
 6.347900e+000  2.067941e-004  1.599006e-004
 6.356160e+000  2.067279e-004  1.598175e-004
 6.364420e+000  3.769338e-004  1.601324e-004
 6.372670e+000  1.919265e-004  1.599826e-004
 6.380930e+000  2.638162e-004  1.597690e-004
 6.389190e+000  1.439485e-004  1.604243e-004
 6.397450e+000  2.249853e-004  1.609457e-004
 6.405700e+000 -2.250735e-005  1.604051e-004
 6.413960e+000  1.979044e-004  1.604219e-004
 6.422220e+000  2.395515e-004  1.604721e-004
 6.430480e+000  2.424412e-004  1.605351e-004
 6.438730e+000 -4.929412e-005  1.600779e-004
 6.446990e+000  4.044412e-004  1.605822e-004
 6.455250e+000  2.838235e-006  1.602229e-004
 6.463510e+000  5.502941e-005  1.604220e-004
 6.471760e+000  8.230882e-005  1.603608e-004
 6.480020e+000 -2.997059e-005  1.595774e-004
 6.488280e+000  3.786397e-004  1.604935e-004
 6.496540e+000  2.303088e-004  1.604504e-004
 6.504790e+000  1.741176e-004  1.609381e-004
 6.513050e+000 -5.602941e-005  1.615353e-004
 6.521310e+000  2.752206e-004  1.606801e-004
 6.529570e+000  2.779779e-004  1.613176e-004
 6.537820e+000  3.425809e-004  1.614327e-004
 6.546080e+000  2.791985e-004  1.611682e-004
 6.554340e+000  3.209118e-004  1.612292e-004
 6.562600e+000  1.254412e-004  1.605290e-004
 6.570850e+000  2.688015e-004  1.611181e-004
 6.579110e+000  3.291176e-004  1.600448e-004
 6.587370e+000  3.517059e-004  1.600157e-004
 6.595630e+000  6.197059e-005  1.610176e-004
 6.603880e+000  3.870662e-004  1.609130e-004
 6.612140e+000  2.513088e-004  1.609429e-004
 6.620400e+000  2.725000e-004  1.655373e-004
 6.628660e+000  4.290074e-004  1.715424e-004
 6.636910e+000  9.179412e-005  1.737563e-004
 6.645170e+000  1.072500e-004  1.780621e-004
 6.653430e+000  1.111029e-004  1.821244e-004
 6.661690e+000  1.456691e-004  1.838146e-004
 6.669940e+000  2.414044e-004  1.875469e-004
 6.678200e+000  3.110294e-005  1.896862e-004
 6.686460e+000 -8.700000e-005  1.909396e-004
 6.694720e+000  2.322500e-004  1.947884e-004
 6.702970e+000  5.815221e-004  1.962993e-004
 6.711230e+000  3.030441e-004  2.003484e-004
 6.719490e+000 -3.257353e-005  2.020495e-004
 6.727750e+000  2.948382e-004  2.066669e-004
 6.736010e+000  4.471912e-004  2.070010e-004
 6.744260e+000 -3.725000e-005  2.095285e-004
 6.752520e+000 -2.147353e-004  2.122132e-004
 6.760780e+000  1.769853e-004  2.145915e-004
 6.769040e+000  3.123971e-004  2.161657e-004
 6.777290e+000  5.000000e-007  2.169160e-004
 6.785550e+000  2.724853e-004  2.207542e-004
 6.793810e+000  1.032353e-004  2.218594e-004
 6.802070e+000  2.970809e-004  2.256904e-004
 6.810320e+000  3.654412e-004  2.295486e-004
 6.818580e+000 -6.538235e-005  2.320786e-004
 6.826840e+000 -1.652132e-004  2.355366e-004
 6.835100e+000  6.493750e-004  2.373061e-004
 6.843350e+000  3.772794e-005  2.395011e-004
 6.851610e+000  2.263824e-004  2.447099e-004
 6.859870e+000  1.254265e-004  2.462050e-004
 6.868130e+000  1.363676e-004  2.515389e-004
 6.876380e+000  1.050441e-004  2.547016e-004
 6.884640e+000  6.408088e-004  2.583171e-004
 6.892900e+000  1.391103e-004  2.601532e-004
 6.901160e+000  2.622059e-005  2.645034e-004
 6.909410e+000  1.017279e-004  2.690185e-004
 6.917670e+000  3.123529e-004  2.715266e-004
 6.925930e+000  1.843309e-004  2.805235e-004
 6.934190e+000  6.050588e-004  2.851226e-004
 6.942440e+000  5.626765e-004  2.894620e-004
 6.950700e+000  1.828603e-004  2.968732e-004
 6.958960e+000  2.783971e-004  3.032836e-004
 6.967220e+000  4.651912e-004  3.116178e-004
 6.975470e+000  2.713824e-004  3.150932e-004
 6.983730e+000 -4.316912e-005  3.253074e-004
 6.991990e+000 -2.308088e-004  3.303141e-004
 7.000250e+000  6.598382e-004  3.300682e-004
 7.008500e+000  6.219853e-005  3.383551e-004
 7.016760e+000  1.768897e-004  3.468556e-004
 7.025020e+000 -5.794853e-005  3.558021e-004
 7.033280e+000 -6.801176e-004  3.656725e-004
 7.041530e+000  4.025809e-004  3.824525e-004
 7.049790e+000  4.361176e-004  3.940035e-004
 7.058050e+000 -9.926471e-006  4.047071e-004
 7.066310e+000  3.428235e-004  4.270307e-004
 7.074560e+000  8.134926e-004  4.403171e-004
 7.082820e+000  8.470956e-004  4.494890e-004
 7.091080e+000  4.919853e-005  4.529375e-004
 7.099340e+000 -2.564485e-004  4.767329e-004
 7.107600e+000  3.997574e-004  4.786483e-004
 7.115850e+000 -2.119044e-004  4.861747e-004
 7.124110e+000 -4.882353e-005  5.188773e-004
 7.132370e+000  1.949706e-004  5.315412e-004
 7.140630e+000  4.825294e-004  5.435412e-004
 7.148880e+000 -1.083971e-004  5.602640e-004
 7.157140e+000  5.799926e-004  5.925211e-004
 7.165400e+000 -1.223603e-004  6.093010e-004
 7.173660e+000 -1.474559e-004  6.372618e-004
 7.181910e+000  1.199926e-004  6.659693e-004
 7.190170e+000  3.405441e-004  7.075862e-004
 7.198430e+000  1.020272e-003  7.597669e-004
 7.206690e+000 -8.325515e-004  8.209882e-004
 7.214940e+000 -8.245441e-004  8.757676e-004
 7.223200e+000  3.754118e-004  9.746529e-004
 7.231460e+000 -3.445588e-004  1.097881e-003
 7.239720e+000  3.138603e-004  1.293841e-003
 7.247970e+000 -7.480662e-004  1.620238e-003
 7.253480e+000  2.427794e-003  2.061874e-003
parent: C:/Users/jeffries/Desktop/p3l-garcia/RNA_Polymerase_Kosinski_EMBO_course/Concentration_series/P1_4_P1_Buffer_0022.dat
parent-concentration: 0.320 / 1.0567
parent: C:/Users/jeffries/Desktop/p3l-garcia/RNA_Polymerase_Kosinski_EMBO_course/Concentration_series/P1_3_P1_Buffer_0019.dat
parent-concentration: 0.690 / 1.0382
parent: C:/Users/jeffries/Desktop/p3l-garcia/RNA_Polymerase_Kosinski_EMBO_course/Concentration_series/P1_2_P1_Buffer_0016.dat
parent-concentration: 1.000 / 0.9974
parent: C:/Users/jeffries/Desktop/p3l-garcia/RNA_Polymerase_Kosinski_EMBO_course/Concentration_series/P1_1_P1_Buffer_0013.dat
parent-concentration: 1.360
creator: almerge
creator-version: 1.1 (r10552)