File: SAXS_TUTORIAL/AB_INITIO/DAMMIF/merge_001_final.dat
Sample:   c= 1.0125 mg/ml  Code:
Parent(s): C:/Users/jeffries/Desktop/p3l-garcia/RNA_Polymerase_Kosinski_EMBO_course/Concentration_series/P1_1_P1_Buffer_0013.dat C:/Users/jeffries/Desktop/p3l-garcia/RNA_Polymerase_Kosinski_EMBO_course/Concentration_series/P1_2_P1_Buffer_0016.dat C:/Users/jeffries/Desktop/p3l-garcia/RNA_Polymerase_Kosinski_EMBO_course/Concentration_series/P1_3_P1_Buffer_0019.dat C:/Users/jeffries/Desktop/p3l-garcia/RNA_Polymerase_Kosinski_EMBO_course/PolymeraseP1_P1_buffer_0009.dat
 7.491270e-002  4.462122e-001  4.461134e-003
 8.317020e-002  4.409969e-001  3.807389e-003
 9.142780e-002  4.289913e-001  3.361115e-003
 9.968540e-002  4.213052e-001  3.008204e-003
 1.079430e-001  4.074578e-001  2.720479e-003
 1.162000e-001  3.968207e-001  2.540724e-003
 1.244580e-001  3.819055e-001  2.364321e-003
 1.327160e-001  3.740263e-001  2.187916e-003
 1.409730e-001  3.657851e-001  2.077614e-003
 1.492310e-001  3.514108e-001  1.990780e-003
 1.574880e-001  3.401959e-001  8.353170e-004
 1.657460e-001  3.298615e-001  7.901549e-004
 1.740030e-001  3.178201e-001  7.477957e-004
 1.822610e-001  3.048188e-001  6.927892e-004
 1.905180e-001  2.942285e-001  6.635268e-004
 1.987760e-001  2.813948e-001  6.452595e-004
 2.070340e-001  2.710789e-001  6.426526e-004
 2.152910e-001  2.593112e-001  6.272722e-004
 2.235490e-001  2.476269e-001  6.134148e-004
 2.318060e-001  2.370043e-001  6.024885e-004
 2.400640e-001  2.252413e-001  7.420779e-004
 2.483210e-001  2.151922e-001  7.282061e-004
 2.565790e-001  2.051300e-001  7.151186e-004
 2.648360e-001  1.932961e-001  6.491525e-004
 2.730940e-001  1.830498e-001  6.165975e-004
 2.813520e-001  1.735420e-001  5.913427e-004
 2.896090e-001  1.630723e-001  5.701194e-004
 2.978670e-001  1.542318e-001  5.455446e-004
 3.061240e-001  1.451705e-001  5.209221e-004
 3.143820e-001  1.373938e-001  5.064948e-004
 3.226390e-001  1.285413e-001  5.050988e-004
 3.308970e-001  1.197318e-001  4.917850e-004
 3.391540e-001  1.127354e-001  4.818515e-004
 3.474120e-001  1.050322e-001  4.706486e-004
 3.556690e-001  9.691883e-002  4.559898e-004
 3.639270e-001  9.054909e-002  4.488165e-004
 3.721850e-001  8.372034e-002  4.353752e-004
 3.804420e-001  7.822476e-002  2.828377e-004
 3.887000e-001  7.292715e-002  2.723887e-004
 3.969570e-001  6.735480e-002  2.634399e-004
 4.052150e-001  6.181570e-002  2.527521e-004
 4.134720e-001  5.690054e-002  2.435322e-004
 4.217300e-001  5.285522e-002  2.339425e-004
 4.299870e-001  4.818098e-002  2.247446e-004
 4.382450e-001  4.436318e-002  2.185881e-004
 4.465030e-001  4.109577e-002  2.152345e-004
 4.547600e-001  3.731276e-002  2.139213e-004
 4.630180e-001  3.429634e-002  2.077685e-004
 4.712750e-001  3.157036e-002  2.002320e-004
 4.795330e-001  2.840229e-002  1.897826e-004
 4.877900e-001  2.578819e-002  1.817494e-004
 4.960480e-001  2.383640e-002  1.736593e-004
 5.043050e-001  2.127488e-002  1.656352e-004
 5.125630e-001  1.937332e-002  1.600191e-004
 5.208210e-001  1.794413e-002  1.576123e-004
 5.290780e-001  1.629764e-002  1.519809e-004
 5.373360e-001  1.499664e-002  1.488496e-004
 5.455930e-001  1.372798e-002  1.430594e-004
 5.538510e-001  1.228146e-002  1.373889e-004
 5.621080e-001  1.150840e-002  1.345823e-004
 5.703660e-001  1.027173e-002  1.315126e-004
 5.786230e-001  9.656939e-003  1.290396e-004
 5.868810e-001  9.094250e-003  1.264363e-004
 5.951390e-001  8.420201e-003  1.254016e-004
 6.033960e-001  7.527657e-003  1.218567e-004
 6.116540e-001  7.513080e-003  1.200503e-004
 6.199110e-001  6.734289e-003  1.173310e-004
 6.281690e-001  6.547349e-003  1.166970e-004
 6.364260e-001  5.980575e-003  1.161944e-004
 6.446840e-001  5.913322e-003  1.131380e-004
 6.529410e-001  5.616445e-003  1.120929e-004
 6.611990e-001  5.433404e-003  1.116874e-004
 6.694560e-001  5.437488e-003  1.109384e-004
 6.777140e-001  5.030736e-003  1.096146e-004
 6.859720e-001  5.160141e-003  1.090610e-004
 6.942290e-001  4.760397e-003  1.083187e-004
 7.024870e-001  4.878794e-003  1.071614e-004
 7.107440e-001  4.620235e-003  1.067600e-004
 7.190020e-001  4.481494e-003  1.061585e-004
 7.272590e-001  4.712496e-003  1.056673e-004
 7.355170e-001  4.492086e-003  1.040968e-004
 7.437740e-001  4.502160e-003  1.036878e-004
 7.520320e-001  4.411174e-003  1.040504e-004
 7.602900e-001  4.311944e-003  1.029492e-004
 7.685470e-001  4.430689e-003  1.027721e-004
 7.768050e-001  4.415436e-003  1.021095e-004
 7.850620e-001  4.240569e-003  1.037308e-004
 7.933200e-001  4.293892e-003  1.067863e-004
 8.015770e-001  4.133126e-003  1.079054e-004
 8.098350e-001  3.843758e-003  1.081719e-004
 8.180920e-001  3.925877e-003  1.084327e-004
 8.263500e-001  3.992730e-003  1.101663e-004
 8.346080e-001  3.878705e-003  1.109377e-004
 8.428650e-001  3.686659e-003  1.087797e-004
 8.511230e-001  3.632025e-003  1.053681e-004
 8.593800e-001  3.518794e-003  1.037166e-004
 8.676380e-001  3.526984e-003  1.021088e-004
 8.758950e-001  3.382838e-003  1.007838e-004
 8.841530e-001  3.428574e-003  1.001008e-004
 8.924100e-001  3.366158e-003  1.021637e-004
 9.006680e-001  3.203174e-003  1.033328e-004
 9.089260e-001  3.123556e-003  1.040684e-004
 9.171830e-001  3.026781e-003  1.045232e-004
 9.254410e-001  2.879732e-003  1.006377e-004
 9.336980e-001  2.770317e-003  9.797231e-005
 9.419560e-001  2.733719e-003  9.682215e-005
 9.502130e-001  2.553078e-003  9.576680e-005
 9.584710e-001  2.448480e-003  9.436705e-005
 9.667280e-001  2.289013e-003  9.441472e-005
 9.749860e-001  2.423320e-003  9.371713e-005
 9.832430e-001  2.318059e-003  9.202045e-005
 9.915010e-001  2.374206e-003  9.171076e-005
 9.997590e-001  2.034175e-003  9.184828e-005
 1.008020e+000  2.028347e-003  9.049274e-005
 1.016270e+000  1.973875e-003  9.015712e-005
 1.024530e+000  1.827639e-003  8.944882e-005
 1.032790e+000  1.817272e-003  8.935230e-005
 1.041050e+000  1.833020e-003  8.795352e-005
 1.049300e+000  1.724680e-003  8.804479e-005
 1.057560e+000  1.800473e-003  8.788437e-005
 1.065820e+000  1.457321e-003  8.666877e-005
 1.074080e+000  1.536596e-003  8.643237e-005
 1.082330e+000  1.570782e-003  8.585148e-005
 1.090590e+000  1.607178e-003  8.563511e-005
 1.098850e+000  1.467060e-003  8.552309e-005
 1.107110e+000  1.308055e-003  8.431353e-005
 1.115360e+000  1.359492e-003  8.467098e-005
 1.123620e+000  1.317498e-003  8.372656e-005
 1.131880e+000  1.206730e-003  8.363789e-005
 1.140140e+000  1.362706e-003  8.344510e-005
 1.148390e+000  1.438305e-003  8.311978e-005
 1.156650e+000  1.244733e-003  8.192776e-005
 1.164910e+000  1.290010e-003  8.174287e-005
 1.173170e+000  1.184080e-003  8.245931e-005
 1.181420e+000  1.208139e-003  8.122770e-005
 1.189680e+000  1.158425e-003  8.121505e-005
 1.197940e+000  1.143017e-003  8.046008e-005
 1.206200e+000  1.124031e-003  7.992525e-005
 1.214450e+000  1.049228e-003  7.931969e-005
 1.222710e+000  1.006257e-003  7.901959e-005
 1.230970e+000  9.135867e-004  7.922653e-005
 1.239230e+000  9.345485e-004  7.892876e-005
 1.247490e+000  1.055894e-003  7.876969e-005
 1.255740e+000  1.068433e-003  7.876928e-005
 1.264000e+000  1.040778e-003  7.840222e-005
 1.272260e+000  1.033857e-003  7.791512e-005
 1.280520e+000  9.986043e-004  7.794580e-005
 1.288770e+000  8.442501e-004  7.749879e-005
 1.297030e+000  9.184103e-004  7.716396e-005
 1.305290e+000  9.582937e-004  7.751021e-005
 1.313550e+000  7.361131e-004  7.635696e-005
 1.321800e+000  7.892614e-004  7.565415e-005
 1.330060e+000  1.033211e-003  7.613923e-005
 1.338320e+000  8.533343e-004  7.630385e-005
 1.346580e+000  8.968240e-004  7.560343e-005
 1.354830e+000  8.339799e-004  7.500429e-005
 1.363090e+000  6.427841e-004  7.439005e-005
 1.371350e+000  7.949580e-004  7.731507e-005
 1.379610e+000  7.321124e-004  7.813529e-005
 1.387860e+000  7.579550e-004  7.932114e-005
 1.396120e+000  8.091031e-004  7.982597e-005
 1.404380e+000  8.568106e-004  8.060686e-005
 1.412640e+000  6.561733e-004  8.076726e-005
 1.420890e+000  6.138567e-004  8.084820e-005
 1.429150e+000  6.748634e-004  7.911227e-005
 1.437410e+000  6.586594e-004  7.766341e-005
 1.445670e+000  7.614256e-004  7.696484e-005
 1.453920e+000  6.300592e-004  7.631454e-005
 1.462180e+000  6.495651e-004  7.530154e-005
 1.470440e+000  6.439557e-004  7.438711e-005
 1.478700e+000  6.170529e-004  7.473086e-005
 1.486950e+000  6.395578e-004  7.442748e-005
 1.495210e+000  6.098460e-004  7.375735e-005
 1.503470e+000  6.388691e-004  7.367420e-005
 1.511730e+000  6.021634e-004  7.363044e-005
 1.519980e+000  4.979541e-004  7.274327e-005
 1.528240e+000  6.486578e-004  7.284977e-005
 1.536500e+000  5.688481e-004  7.255995e-005
 1.544760e+000  6.478334e-004  7.308143e-005
 1.553010e+000  5.027606e-004  7.193393e-005
 1.561270e+000  4.675636e-004  7.179625e-005
 1.569530e+000  4.593252e-004  7.116621e-005
 1.577790e+000  5.971826e-004  7.140145e-005
 1.586040e+000  5.024877e-004  7.102165e-005
 1.594300e+000  5.044923e-004  7.091348e-005
 1.602560e+000  4.047909e-004  7.054821e-005
 1.610820e+000  4.510896e-004  7.058464e-005
 1.619080e+000  5.458730e-004  7.041374e-005
 1.627330e+000  3.944364e-004  6.999810e-005
 1.635590e+000  4.429383e-004  6.933199e-005
 1.643850e+000  5.453645e-004  6.967397e-005
 1.652110e+000  6.298334e-004  6.942428e-005
 1.660360e+000  4.955666e-004  6.880686e-005
 1.668620e+000  4.479176e-004  6.877978e-005
 1.676880e+000  3.706627e-004  6.835079e-005
 1.685140e+000  4.746190e-004  6.870691e-005
 1.693390e+000  4.397277e-004  6.853535e-005
 1.701650e+000  4.999458e-004  6.863882e-005
 1.709910e+000  3.818758e-004  6.836858e-005
 1.718170e+000  4.034593e-004  6.831474e-005
 1.726420e+000  4.572291e-004  6.799541e-005
 1.734680e+000  5.269015e-004  6.760782e-005
 1.742940e+000  3.337711e-004  6.750701e-005
 1.751200e+000  4.567562e-004  6.766365e-005
 1.759450e+000  4.787668e-004  6.747141e-005
 1.767710e+000  5.148297e-004  6.758150e-005
 1.775970e+000  4.317852e-004  6.711413e-005
 1.784230e+000  3.303592e-004  6.736299e-005
 1.792480e+000  4.126878e-004  6.693213e-005
 1.800740e+000  4.232366e-004  6.700822e-005
 1.809000e+000  3.533999e-004  6.680659e-005
 1.817260e+000  4.195917e-004  6.685911e-005
 1.825510e+000  2.566276e-004  6.696837e-005
 1.833770e+000  3.895913e-004  6.661133e-005
 1.842030e+000  2.822502e-004  6.677067e-005
 1.850290e+000  3.219064e-004  6.726435e-005
 1.858540e+000  3.250754e-004  6.703229e-005
 1.866800e+000  3.643017e-004  6.656821e-005
 1.875060e+000  3.478119e-004  6.615206e-005
 1.883320e+000  3.814443e-004  6.629953e-005
 1.891570e+000  3.395634e-004  6.559141e-005
 1.899830e+000  3.759107e-004  6.531169e-005
 1.908090e+000  4.101060e-004  6.566650e-005
 1.916350e+000  3.070827e-004  6.531858e-005
 1.924600e+000  3.632329e-004  6.503123e-005
 1.932860e+000  3.627957e-004  6.519676e-005
 1.941120e+000  3.275515e-004  6.491403e-005
 1.949380e+000  3.664862e-004  6.468335e-005
 1.957630e+000  3.112776e-004  6.685098e-005
 1.965890e+000  2.968610e-004  6.762815e-005
 1.974150e+000  2.588322e-004  6.838237e-005
 1.982410e+000  3.154425e-004  6.826639e-005
 1.990660e+000  3.059167e-004  6.904258e-005
 1.998920e+000  2.426939e-004  6.950280e-005
 2.007180e+000  2.558860e-004  6.964867e-005
 2.015440e+000  3.202219e-004  6.821046e-005
 2.023700e+000  2.231051e-004  6.724976e-005
 2.031950e+000  3.582978e-004  6.657999e-005
 2.040210e+000  2.859822e-004  6.635277e-005
 2.048470e+000  2.988184e-004  6.607269e-005
 2.056730e+000  2.867366e-004  6.561413e-005
 2.064980e+000  2.614098e-004  6.513954e-005
 2.073240e+000  3.105175e-004  6.556155e-005
 2.081500e+000  4.114220e-004  6.508321e-005
 2.089760e+000  2.353957e-004  6.493762e-005
 2.098010e+000  2.826202e-004  6.444208e-005
 2.106270e+000  2.121748e-004  6.442458e-005
 2.114530e+000  2.899185e-004  6.405308e-005
 2.122790e+000  1.925031e-004  6.441065e-005
 2.131040e+000  1.461673e-004  6.388537e-005
 2.139300e+000  2.312621e-004  6.421936e-005
 2.147560e+000  2.897870e-004  6.326519e-005
 2.155820e+000  2.010688e-004  6.359292e-005
 2.164070e+000  3.325609e-004  6.339664e-005
 2.172330e+000  3.308407e-004  6.302090e-005
 2.180590e+000  2.139422e-004  6.298194e-005
 2.188850e+000  3.583836e-004  6.305537e-005
 2.197100e+000  2.275429e-004  6.244404e-005
 2.205360e+000  2.434469e-004  6.274194e-005
 2.213620e+000  2.134336e-004  6.279110e-005
 2.221880e+000  1.972639e-004  6.297639e-005
 2.230130e+000  3.543701e-004  6.253034e-005
 2.238390e+000  2.904972e-004  6.221515e-005
 2.246650e+000  1.819015e-004  6.222047e-005
 2.254910e+000  2.141908e-004  6.232895e-005
 2.263160e+000  1.482348e-004  6.220725e-005
 2.271420e+000  2.173613e-004  6.200198e-005
 2.279680e+000  2.482920e-004  6.205897e-005
 2.287940e+000  3.140952e-004  6.243474e-005
 2.296190e+000  3.027720e-004  6.277161e-005
 2.304450e+000  1.250582e-004  6.245000e-005
 2.312710e+000  1.651946e-004  6.197869e-005
 2.320970e+000  1.371416e-004  6.185672e-005
 2.329220e+000  1.965695e-004  6.207391e-005
 2.337480e+000  2.683222e-004  6.196873e-005
 2.345740e+000  2.862336e-004  6.150249e-005
 2.354000e+000  3.382204e-004  6.135702e-005
 2.362250e+000  1.616098e-004  6.138757e-005
 2.370510e+000  2.130992e-004  6.087501e-005
 2.378770e+000  3.122191e-004  6.118472e-005
 2.387030e+000  2.482820e-004  6.055221e-005
 2.395290e+000  8.642932e-005  6.046337e-005
 2.403540e+000  2.526726e-004  6.025403e-005
 2.411800e+000  1.900299e-004  6.002744e-005
 2.420060e+000  2.290046e-004  6.032360e-005
 2.428320e+000  2.078741e-004  6.019470e-005
 2.436570e+000  2.799527e-004  6.029383e-005
 2.444830e+000  2.614997e-004  6.034863e-005
 2.453090e+000  3.242310e-004  5.978569e-005
 2.461350e+000  1.250711e-004  5.980749e-005
 2.469600e+000  2.646259e-004  5.991346e-005
 2.477860e+000  2.988156e-004  5.990311e-005
 2.486120e+000  2.932848e-004  5.948465e-005
 2.494380e+000  2.631572e-004  5.961737e-005
 2.502630e+000  2.402121e-004  5.936474e-005
 2.510890e+000  2.616069e-004  5.910331e-005
 2.519150e+000  2.017417e-004  5.941811e-005
 2.527410e+000  1.778694e-004  5.940466e-005
 2.535660e+000  2.382018e-004  6.045638e-005
 2.543920e+000  1.771650e-004  6.128620e-005
 2.552180e+000  9.975428e-005  6.176548e-005
 2.560440e+000  1.805641e-004  6.280709e-005
 2.568690e+000  1.715456e-004  6.328596e-005
 2.576950e+000  1.381617e-004  6.365720e-005
 2.585210e+000  2.171156e-004  6.397314e-005
 2.593470e+000  2.163384e-004  6.363866e-005
 2.601720e+000  2.445571e-004  6.217926e-005
 2.609980e+000  1.630971e-004  6.163916e-005
 2.618240e+000  8.106991e-005  6.107700e-005
 2.626500e+000  2.173114e-004  6.058638e-005
 2.634750e+000  1.692438e-004  6.059421e-005
 2.643010e+000  2.066454e-004  6.042757e-005
 2.651270e+000  1.700310e-004  5.991576e-005
 2.659530e+000  2.507609e-004  5.954386e-005
 2.667780e+000  2.009888e-004  5.988844e-005
 2.676040e+000  1.702283e-004  5.959605e-005
 2.684300e+000  1.665891e-004  5.923134e-005
 2.692560e+000  2.645560e-004  5.894936e-005
 2.700810e+000  1.884925e-004  5.925398e-005
 2.709070e+000  1.742846e-004  5.897056e-005
 2.717330e+000  1.912630e-004  5.870993e-005
 2.725590e+000  1.694281e-004  5.883644e-005
 2.733840e+000  2.839090e-004  5.898530e-005
 2.742100e+000  1.310578e-004  5.840191e-005
 2.750360e+000  1.629442e-004  5.838217e-005
 2.758620e+000  2.376917e-004  5.862649e-005
 2.766870e+000  1.782052e-004  5.824436e-005
 2.775130e+000  8.497337e-005  5.790713e-005
 2.783390e+000  7.743219e-005  5.849588e-005
 2.791650e+000  1.088171e-004  5.805364e-005
 2.799910e+000  1.620112e-004  5.782624e-005
 2.808160e+000  2.098644e-004  5.801785e-005
 2.816420e+000  2.537699e-004  5.777281e-005
 2.824680e+000  1.974625e-004  5.745009e-005
 2.832940e+000  1.906129e-004  5.760826e-005
 2.841190e+000  9.823260e-005  5.771276e-005
 2.849450e+000  1.890411e-004  5.744326e-005
 2.857710e+000  1.951236e-004  5.746109e-005
 2.865970e+000  9.986858e-005  5.736743e-005
 2.874220e+000  1.583907e-004  5.733983e-005
 2.882480e+000  1.640673e-004  5.714196e-005
 2.890740e+000  1.830388e-004  5.735946e-005
 2.899000e+000  9.607084e-005  5.701689e-005
 2.907250e+000  1.399121e-004  5.699144e-005
 2.915510e+000  2.521940e-004  5.689100e-005
 2.923770e+000  7.577908e-005  5.670982e-005
 2.932030e+000  3.084200e-005  5.656169e-005
 2.940280e+000  1.441927e-004  5.669095e-005
 2.948540e+000  3.315394e-004  5.673684e-005
 2.956800e+000  3.546373e-004  5.683292e-005
 2.965060e+000  1.849919e-004  5.624441e-005
 2.973310e+000  1.534127e-004  5.649790e-005
 2.981570e+000  1.690352e-004  5.651218e-005
 2.989830e+000  1.330581e-004  5.618066e-005
 2.998090e+000  1.914659e-004  5.583669e-005
 3.006340e+000  2.282731e-004  5.614203e-005
 3.014600e+000  6.620042e-005  5.587912e-005
 3.022860e+000  2.037235e-004  5.553127e-005
 3.031120e+000  1.502451e-004  5.590040e-005
 3.039370e+000  1.760992e-004  5.618175e-005
 3.047630e+000  2.952007e-004  5.611149e-005
 3.055890e+000  1.195288e-004  5.564092e-005
 3.064150e+000  7.190418e-005  5.557239e-005
 3.072400e+000  2.768008e-005  5.565948e-005
 3.080660e+000  1.510152e-004  5.563870e-005
 3.088920e+000  1.033848e-004  5.555512e-005
 3.097180e+000  2.328595e-004  5.579973e-005
 3.105430e+000  2.033034e-004  5.543583e-005
 3.113690e+000  8.563634e-005  5.542707e-005
 3.121950e+000  2.246554e-004  5.685189e-005
 3.130210e+000  1.173071e-004  5.741228e-005
 3.138460e+000  2.179315e-004  5.825884e-005
 3.146720e+000  1.055995e-004  5.873831e-005
 3.154980e+000  1.263984e-004  5.876720e-005
 3.163240e+000  1.745389e-004  5.951396e-005
 3.171490e+000  8.390606e-005  5.988904e-005
 3.179750e+000  1.286431e-004  5.913556e-005
 3.188010e+000  1.706626e-004  5.801302e-005
 3.196270e+000  2.274601e-004  5.780114e-005
 3.204530e+000  1.997186e-004  5.747078e-005
 3.212780e+000  8.082559e-005  5.733102e-005
 3.221040e+000  1.428182e-004  5.654645e-005
 3.229300e+000  6.610469e-005  5.657808e-005
 3.237560e+000  1.359171e-004  5.639364e-005
 3.245810e+000  2.831246e-004  5.674774e-005
 3.254070e+000  1.642544e-004  5.595089e-005
 3.262330e+000  1.551916e-004  5.578958e-005
 3.270590e+000  1.809313e-004  5.585060e-005
 3.278840e+000  1.969511e-004  5.595265e-005
 3.287100e+000  2.209376e-004  5.576925e-005
 3.295360e+000  2.050981e-004  5.598352e-005
 3.303620e+000  5.760478e-005  5.541684e-005
 3.311870e+000  2.016861e-004  5.591029e-005
 3.320130e+000  9.778396e-005  5.557028e-005
 3.328390e+000  1.545558e-004  5.531253e-005
 3.336650e+000  2.476675e-004  5.510554e-005
 3.344900e+000  1.479218e-004  5.536792e-005
 3.353160e+000  9.261743e-005  5.503742e-005
 3.361420e+000  1.152482e-004  5.500442e-005
 3.369680e+000  1.710355e-004  5.498573e-005
 3.377930e+000  2.528055e-004  5.479954e-005
 3.386190e+000  1.668420e-004  5.488793e-005
 3.394450e+000  1.575234e-004  5.444090e-005
 3.402710e+000  2.113033e-004  5.467140e-005
 3.410960e+000  4.402550e-005  5.440922e-005
 3.419220e+000  1.899185e-004  5.426169e-005
 3.427480e+000  1.374117e-004  5.435506e-005
 3.435740e+000  1.841733e-004  5.441056e-005
 3.443990e+000  2.284216e-004  5.423671e-005
 3.452250e+000  2.052981e-004  5.424260e-005
 3.460510e+000  1.210805e-004  5.424286e-005
 3.468770e+000  1.830645e-004  5.420533e-005
 3.477020e+000  1.917231e-004  5.397672e-005
 3.485280e+000  1.585478e-004  5.403049e-005
 3.493540e+000  1.267900e-004  5.409157e-005
 3.501800e+000  1.369859e-004  5.404238e-005
 3.510050e+000  2.151882e-004  5.391386e-005
 3.518310e+000  2.399335e-004  5.426097e-005
 3.526570e+000  1.147552e-004  5.391918e-005
 3.534830e+000  1.184443e-004  5.378182e-005
 3.543080e+000  2.492706e-004  5.393516e-005
 3.551340e+000  1.370358e-004  5.402086e-005
 3.559600e+000  6.324139e-005  5.366733e-005
 3.567860e+000  7.945250e-005  5.411367e-005
 3.576120e+000  9.920419e-005  5.405407e-005
 3.584370e+000  1.350884e-004  5.403580e-005
 3.592630e+000  1.152767e-004  5.366565e-005
 3.600890e+000  1.997343e-004  5.400687e-005
 3.609150e+000  8.686368e-005  5.396570e-005
 3.617400e+000  2.177629e-004  5.365736e-005
 3.625660e+000  9.735961e-005  5.371359e-005
 3.633920e+000  8.473763e-005  5.391603e-005
 3.642180e+000  9.752250e-005  5.380784e-005
 3.650430e+000  9.117292e-005  5.371692e-005
 3.658690e+000  9.597940e-005  5.406024e-005
 3.666950e+000  1.590222e-004  5.405716e-005
 3.675210e+000  1.451414e-004  5.381425e-005
 3.683460e+000  2.190860e-004  5.393602e-005
 3.691720e+000  1.042950e-004  5.397194e-005
 3.699980e+000  1.345955e-004  5.421542e-005
 3.708240e+000  2.149867e-004  5.591279e-005
 3.716490e+000  1.659533e-004  5.659174e-005
 3.724750e+000  1.038049e-004  5.749801e-005
 3.733010e+000  2.130792e-004  5.730656e-005
 3.741270e+000  1.273558e-004  5.775768e-005
 3.749520e+000  1.435697e-004  5.834122e-005
 3.757780e+000  1.434955e-004  5.882861e-005
 3.766040e+000  1.798497e-004  5.759141e-005
 3.774300e+000  8.011833e-005  5.665263e-005
 3.782550e+000  2.022204e-004  5.649475e-005
 3.790810e+000  8.664079e-005  5.629456e-005
 3.799070e+000  7.405309e-005  5.613868e-005
 3.807330e+000  1.271572e-004  5.592049e-005
 3.815580e+000  1.839418e-004  5.546804e-005
 3.823840e+000  8.763237e-005  5.572842e-005
 3.832100e+000  1.281859e-004  5.545324e-005
 3.840360e+000  1.136279e-004  5.538255e-005
 3.848610e+000  7.593053e-005  5.500082e-005
 3.856870e+000  1.746318e-004  5.518986e-005
 3.865130e+000  1.922674e-004  5.479630e-005
 3.873390e+000  2.038735e-004  5.482023e-005
 3.881640e+000  1.577020e-004  5.496025e-005
 3.889900e+000  2.470589e-004  5.516391e-005
 3.898160e+000  1.040578e-004  5.493423e-005
 3.906420e+000  8.955982e-005  5.495461e-005
 3.914670e+000  1.605910e-004  5.519771e-005
 3.922930e+000  2.631829e-004  5.561816e-005
 3.931190e+000  2.142051e-004  5.532411e-005
 3.939450e+000  1.970610e-004  5.525932e-005
 3.947700e+000  1.589764e-004  5.533888e-005
 3.955960e+000  2.223221e-004  5.530274e-005
 3.964220e+000  2.106760e-004  5.549007e-005
 3.972480e+000  1.207847e-004  5.531548e-005
 3.980740e+000  1.328152e-004  5.540978e-005
 3.988990e+000  1.667005e-004  5.525536e-005
 3.997250e+000  1.474160e-004  5.533964e-005
 4.005510e+000  2.105003e-004  5.561533e-005
 4.013770e+000  8.423040e-005  5.542980e-005
 4.022020e+000  1.305277e-004  5.565848e-005
 4.030280e+000  6.019804e-005  5.563583e-005
 4.038540e+000  1.292775e-004  5.551871e-005
 4.046800e+000  2.066511e-004  5.552118e-005
 4.055050e+000  9.736104e-005  5.536320e-005
 4.063310e+000  1.630971e-004  5.566255e-005
 4.071570e+000  1.095916e-004  5.542915e-005
 4.079830e+000  9.860981e-005  5.534351e-005
 4.088080e+000  1.537556e-004  5.543221e-005
 4.096340e+000  1.375745e-004  5.580918e-005
 4.104600e+000  1.185901e-004  5.550556e-005
 4.112860e+000  9.684810e-005  5.530091e-005
 4.121110e+000  9.639660e-005  5.521077e-005
 4.129370e+000  1.782438e-004  5.522089e-005
 4.137630e+000  2.079656e-004  5.529726e-005
 4.145890e+000  1.454800e-004  5.541301e-005
 4.154140e+000  1.596737e-004  5.516191e-005
 4.162400e+000  1.433740e-004  5.525647e-005
 4.170660e+000  1.849577e-004  5.544250e-005
 4.178920e+000  1.499722e-004  5.522915e-005
 4.187170e+000  2.332767e-004  5.560092e-005
 4.195430e+000  1.000858e-004  5.569129e-005
 4.203690e+000  1.744675e-004  5.583434e-005
 4.211950e+000  1.567461e-004  5.554090e-005
 4.220200e+000  1.902414e-004  5.528666e-005
 4.228460e+000  6.445729e-005  5.563733e-005
 4.236720e+000  1.238495e-004  5.595407e-005
 4.244980e+000  1.750275e-004  5.571598e-005
 4.253230e+000  8.634502e-005  5.564564e-005
 4.261490e+000  7.233139e-005  5.592976e-005
 4.269750e+000  1.304734e-004  5.578254e-005
 4.278010e+000  2.057852e-004  5.575650e-005
 4.286260e+000  1.146995e-004  5.738932e-005
 4.294520e+000  2.096188e-004  5.841138e-005
 4.302780e+000  1.357156e-004  5.948757e-005
 4.311040e+000  5.760335e-005  5.996978e-005
 4.319290e+000  2.099016e-004  6.068537e-005
 4.327550e+000  1.906343e-004  6.139313e-005
 4.335810e+000  8.031264e-005  6.222616e-005
 4.344070e+000  1.808941e-004  6.218535e-005
 4.352320e+000  8.289591e-005  5.990643e-005
 4.360580e+000  1.548301e-004  5.946586e-005
 4.368840e+000  2.161626e-005  5.945850e-005
 4.377100e+000  1.491921e-004  5.921584e-005
 4.385360e+000 -1.915016e-005  5.862186e-005
 4.393610e+000  1.188830e-004  5.880819e-005
 4.401870e+000  1.164812e-004  5.882247e-005
 4.410130e+000  2.056038e-005  5.837113e-005
 4.418390e+000  2.425596e-004  5.858570e-005
 4.426640e+000  1.539756e-004  5.827281e-005
 4.434900e+000  1.989785e-004  5.808705e-005
 4.443160e+000  1.422910e-004  5.810296e-005
 4.451420e+000  1.031019e-004  5.809481e-005
 4.459670e+000  8.631216e-005  5.802283e-005
 4.467930e+000  1.673078e-004  5.788263e-005
 4.476190e+000  9.482207e-005  5.775459e-005
 4.484450e+000  2.786481e-004  5.788982e-005
 4.492700e+000  6.607183e-005  5.742341e-005
 4.500960e+000  1.474475e-004  5.781794e-005
 4.509220e+000  1.862222e-004  5.793114e-005
 4.517480e+000  9.246455e-005  5.756812e-005
 4.525730e+000  8.914260e-005  5.747848e-005
 4.533990e+000  2.549015e-004  5.754596e-005
 4.542250e+000  8.288591e-005  5.767774e-005
 4.550510e+000  1.514153e-004  5.781755e-005
 4.558760e+000  1.013817e-004  5.760671e-005
 4.567020e+000  1.526397e-004  5.733267e-005
 4.575280e+000  1.958679e-004  5.798703e-005
 4.583540e+000  2.088457e-004  5.788687e-005
 4.591790e+000  2.046408e-004  5.768372e-005
 4.600050e+000  7.726502e-005  5.753533e-005
 4.608310e+000  2.332624e-004  5.790988e-005
 4.616570e+000  1.267643e-004  5.786094e-005
 4.624820e+000  9.727960e-005  5.762540e-005
 4.633080e+000  1.603838e-004  5.742669e-005
 4.641340e+000  1.038321e-004  5.787758e-005
 4.649600e+000  7.214993e-005  5.789719e-005
 4.657850e+000  1.578162e-004  5.787141e-005
 4.666110e+000  2.010888e-004  5.734903e-005
 4.674370e+000  9.901559e-005  5.764403e-005
 4.682630e+000  6.919375e-005  5.795706e-005
 4.690880e+000  1.259455e-004  5.784500e-005
 4.699140e+000  1.670206e-004  5.754722e-005
 4.707400e+000  1.766678e-004  5.794391e-005
 4.715660e+000  1.200004e-004  5.802872e-005
 4.723910e+000  1.713785e-004  5.828612e-005
 4.732170e+000  9.328040e-005  5.783982e-005
 4.740430e+000  1.134408e-004  5.802533e-005
 4.748690e+000  1.717170e-004  5.810105e-005
 4.756950e+000  2.408965e-004  5.820002e-005
 4.765200e+000  9.390050e-005  5.803226e-005
 4.773460e+000  1.794283e-005  5.802437e-005
 4.781720e+000  1.906671e-004  5.813655e-005
 4.789980e+000  1.908915e-004  5.793889e-005
 4.798230e+000  1.969581e-004  5.779034e-005
 4.806490e+000  2.235452e-004  5.783847e-005
 4.814750e+000  6.343427e-005  5.780430e-005
 4.823010e+000  1.677864e-004  5.816941e-005
 4.831260e+000  1.682993e-004  5.782962e-005
 4.839520e+000  1.474832e-004  5.767382e-005
 4.847780e+000  1.535256e-004  5.780128e-005
 4.856040e+000  2.008730e-004  5.783561e-005
 4.864290e+000  1.936219e-004  5.793655e-005
 4.872550e+000  1.523569e-004  5.953366e-005
 4.880810e+000  1.478775e-004  6.104540e-005
 4.889070e+000  1.794025e-004  6.201499e-005
 4.897320e+000  1.294561e-004  6.267851e-005
 4.905580e+000  1.409408e-004  6.312701e-005
 4.913840e+000  1.946621e-004  6.425700e-005
 4.922100e+000  1.795396e-004  6.517722e-005
 4.930350e+000  1.067425e-004  6.335522e-005
 4.938610e+000  2.003944e-004  6.235003e-005
 4.946870e+000  2.441213e-004  6.183300e-005
 4.955130e+000  1.664519e-004  6.152909e-005
 4.963380e+000  1.439527e-004  6.131099e-005
 4.971640e+000  1.459916e-004  6.084924e-005
 4.979900e+000  1.625614e-004  6.086002e-005
 4.988160e+000  2.468932e-004  6.094188e-005
 4.996410e+000  4.370831e-005  6.080677e-005
 5.004670e+000  1.984584e-004  6.046407e-005
 5.012930e+000  2.032006e-004  6.027992e-005
 5.021190e+000  2.114761e-004  6.083659e-005
 5.029440e+000  1.957566e-004  6.073201e-005
 5.037700e+000  1.483063e-004  6.039137e-005
 5.045960e+000  2.391491e-004  6.036703e-005
 5.054220e+000  2.119148e-004  6.065439e-005
 5.062470e+000  1.691709e-004  6.045869e-005
 5.070730e+000  1.638415e-004  6.016234e-005
 5.078990e+000  2.027862e-004  6.033793e-005
 5.087250e+000  1.321565e-004  6.032503e-005
 5.095500e+000  1.946750e-004  6.042248e-005
 5.103760e+000  1.345640e-004  6.025719e-005
 5.112020e+000  1.445299e-004  6.026873e-005
 5.120280e+000  1.559203e-004  5.983888e-005
 5.128530e+000  1.304149e-004  6.000905e-005
 5.136790e+000  1.265399e-004  6.037886e-005
 5.145050e+000  2.458458e-004  6.037019e-005
 5.153310e+000  1.720014e-004  6.011222e-005
 5.161570e+000  1.022261e-004  6.012574e-005
 5.169820e+000  1.254569e-004  6.007723e-005
 5.178080e+000  2.392234e-004  6.019497e-005
 5.186340e+000  7.070685e-005  5.997684e-005
 5.194600e+000  1.950822e-004  5.995033e-005
 5.202850e+000  1.764792e-004  5.960715e-005
 5.211110e+000  1.031348e-004  5.966078e-005
 5.219370e+000  1.011016e-004  6.000719e-005
 5.227630e+000  8.742233e-005  5.959668e-005
 5.235880e+000  1.098558e-004  5.976120e-005
 5.244140e+000  1.811771e-004  5.983932e-005
 5.252400e+000  1.266571e-004  5.974736e-005
 5.260660e+000  6.271845e-005  5.984006e-005
 5.268910e+000  1.158482e-004  6.003898e-005
 5.277170e+000  8.245155e-005  6.035327e-005
 5.285430e+000  1.403050e-004  5.974993e-005
 5.293690e+000  1.139051e-004  6.011524e-005
 5.301940e+000  2.361557e-004  6.000906e-005
 5.310200e+000  1.935219e-004  6.007206e-005
 5.318460e+000  2.490063e-004  6.039001e-005
 5.326720e+000  1.940834e-004  6.006440e-005
 5.334970e+000  1.706640e-004  6.003087e-005
 5.343230e+000  2.368630e-004  5.975581e-005
 5.351490e+000  1.670763e-004  5.999956e-005
 5.359750e+000  9.646233e-005  5.992557e-005
 5.368000e+000  2.781995e-004  5.992899e-005
 5.376260e+000  1.609382e-004  5.969503e-005
 5.384520e+000  2.047079e-004  5.942362e-005
 5.392780e+000  2.186102e-004  5.947833e-005
 5.401030e+000  1.322280e-004  5.960722e-005
 5.409290e+000  1.960594e-004  5.984778e-005
 5.417550e+000  1.116818e-004  6.000373e-005
 5.425810e+000  3.011731e-004  6.002692e-005
 5.434060e+000  2.304863e-004  5.993069e-005
 5.442320e+000  1.352942e-004  5.981005e-005
 5.450580e+000  1.731130e-004  6.045636e-005
 5.458840e+000  1.188359e-004  6.269307e-005
 5.467090e+000  1.682436e-004  6.426658e-005
 5.475350e+000  2.614497e-004  6.512891e-005
 5.483610e+000  2.222565e-004  6.601393e-005
 5.491870e+000  5.593595e-005  6.677792e-005
 5.500120e+000  1.161455e-004  6.785839e-005
 5.508380e+000  1.116205e-004  6.836279e-005
 5.516640e+000  1.352313e-004  6.588562e-005
 5.524900e+000  1.127635e-004  6.491675e-005
 5.533160e+000  1.923775e-004  6.467014e-005
 5.541410e+000  1.746746e-004  6.422462e-005
 5.549670e+000  1.677322e-004  6.406780e-005
 5.557930e+000  1.085213e-004  6.376147e-005
 5.566190e+000  1.074898e-004  6.347540e-005
 5.574440e+000  1.929232e-004  6.343454e-005
 5.582700e+000  1.285603e-004  6.345381e-005
 5.590960e+000  2.072298e-004  6.371259e-005
 5.599220e+000  1.650460e-004  6.318960e-005
 5.607470e+000  6.673051e-005  6.274099e-005
 5.615730e+000  8.395464e-005  6.304287e-005
 5.623990e+000  2.765021e-004  6.300853e-005
 5.632250e+000  1.457744e-004  6.298933e-005
 5.640500e+000  1.932118e-004  6.275891e-005
 5.648760e+000  1.793311e-004  6.239894e-005
 5.657020e+000  5.579879e-005  6.216438e-005
 5.665280e+000  2.093573e-004  6.229713e-005
 5.673530e+000  1.402678e-004  6.256238e-005
 5.681790e+000  1.712998e-004  6.257123e-005
 5.690050e+000  2.901999e-004  6.251594e-005
 5.698310e+000  7.857237e-005  6.228593e-005
 5.706560e+000  1.262513e-004  6.234361e-005
 5.714820e+000  1.915473e-004  6.237413e-005
 5.723080e+000  2.954694e-004  6.241961e-005
 5.731340e+000  2.006530e-004  6.251709e-005
 5.739590e+000  1.092443e-004  6.221215e-005
 5.747850e+000  2.632500e-004  6.209179e-005
 5.756110e+000  2.499593e-004  6.233885e-005
 5.764370e+000  1.159412e-004  6.209218e-005
 5.772620e+000  1.560560e-004  6.212292e-005
 5.780880e+000  1.557460e-004  6.240586e-005
 5.789140e+000  2.199704e-004  6.242666e-005
 5.797400e+000  7.719930e-005  6.231231e-005
 5.805650e+000  1.673635e-004  6.243494e-005
 5.813910e+000  7.402451e-005  6.233610e-005
 5.822170e+000  1.416123e-004  6.217800e-005
 5.830430e+000  2.256598e-004  6.233923e-005
 5.838680e+000  1.721485e-004  6.201826e-005
 5.846940e+000  3.892898e-005  6.222098e-005
 5.855200e+000  2.653846e-004  6.195677e-005
 5.863460e+000  9.990145e-005  6.167887e-005
 5.871710e+000  1.764949e-004  6.229348e-005
 5.879970e+000  2.284045e-004  6.210305e-005
 5.888230e+000  2.024533e-004  6.216919e-005
 5.896490e+000  1.928875e-004  6.219686e-005
 5.904740e+000  2.006058e-004  6.215732e-005
 5.913000e+000  2.432798e-004  6.189454e-005
 5.921260e+000  1.239995e-004  6.198374e-005
 5.929520e+000  1.564275e-004  6.191319e-005
 5.937780e+000  1.732444e-004  6.219516e-005
 5.946030e+000  1.762420e-004  6.226745e-005
 5.954290e+000  1.970696e-004  6.235433e-005
 5.962550e+000  9.407481e-005  6.214634e-005
 5.970810e+000  2.391162e-004  6.229554e-005
 5.979060e+000  2.021947e-004  6.226818e-005
 5.987320e+000  1.085170e-004  6.226942e-005
 5.995580e+000  1.882396e-004  6.238032e-005
 6.003840e+000  2.496279e-004  6.245488e-005
 6.012090e+000  1.108732e-004  6.249468e-005
 6.020350e+000  1.517696e-004  6.223544e-005
 6.028610e+000  2.258956e-004  6.256172e-005
 6.036870e+000  2.341397e-004  6.442047e-005
 6.045120e+000  1.977711e-004  6.653376e-005
 6.053380e+000  1.506923e-004  6.726739e-005
 6.061640e+000  5.094087e-005  6.876035e-005
 6.069900e+000  1.909100e-004  6.954027e-005
 6.078150e+000  1.828445e-004  7.001901e-005
 6.086410e+000  3.327724e-004  7.113770e-005
 6.094670e+000  1.806299e-004  7.146406e-005
 6.102930e+000  1.154925e-004  6.819003e-005
 6.111180e+000  6.751063e-005  6.724640e-005
 6.119440e+000  1.456815e-004  6.696192e-005
 6.127700e+000  2.600610e-004  6.667251e-005
 6.135960e+000  1.575606e-004  6.627056e-005
 6.144210e+000  9.396193e-005  6.592059e-005
 6.152470e+000  1.104160e-004  6.585092e-005
 6.160730e+000  3.033506e-004  6.575421e-005
 6.168990e+000  1.448585e-004  6.615091e-005
 6.177240e+000  2.440956e-004  6.592203e-005
 6.185500e+000  2.238324e-004  6.563632e-005
 6.193760e+000  1.473389e-004  6.530313e-005
 6.202020e+000  3.543701e-005  6.529759e-005
 6.210270e+000  1.796854e-004  6.548989e-005
 6.218530e+000  1.551044e-004  6.548770e-005
 6.226790e+000  1.665891e-004  6.557614e-005
 6.235050e+000  1.839818e-004  6.555152e-005
 6.243300e+000  8.696655e-005  6.514765e-005
 6.251560e+000  1.134664e-004  6.526340e-005
 6.259820e+000  2.113876e-004  6.521629e-005
 6.268080e+000  1.702211e-004  6.543149e-005
 6.276330e+000  6.622042e-005  6.529414e-005
 6.284590e+000  3.595852e-005  6.534380e-005
 6.292850e+000  1.952164e-004  6.533961e-005
 6.301110e+000  1.640444e-004  6.506187e-005
 6.309360e+000  2.280302e-004  6.489049e-005
 6.317620e+000  1.958194e-004  6.509842e-005
 6.325880e+000  1.031462e-004  6.500715e-005
 6.334140e+000  8.824247e-005  6.436129e-005
 6.342400e+000  1.297818e-004  6.431955e-005
 6.350650e+000  2.079242e-004  6.453868e-005
 6.358910e+000 -6.861081e-006  6.444072e-005
 6.367170e+000  2.195746e-004  6.472746e-005
 6.375430e+000  1.763720e-004  6.457165e-005
 6.383680e+000  1.874453e-004  6.474759e-005
 6.391940e+000  1.240481e-004  6.449851e-005
 6.400200e+000  7.848807e-005  6.453057e-005
 6.408460e+000  6.622185e-005  6.478232e-005
 6.416710e+000  8.775096e-005  6.465234e-005
 6.424970e+000  3.978769e-005  6.473932e-005
 6.433230e+000  1.210262e-004  6.482874e-005
 6.441490e+000  2.531570e-004  6.488699e-005
 6.449740e+000  1.849249e-004  6.463999e-005
 6.458000e+000  1.750547e-004  6.462745e-005
 6.466260e+000  2.457430e-004  6.466431e-005
 6.474520e+000  1.532727e-004  6.448302e-005
 6.482770e+000  2.185487e-004  6.485033e-005
 6.491030e+000 -7.679781e-006  6.481569e-005
 6.499290e+000  6.976955e-005  6.478186e-005
 6.507550e+000  1.218406e-004  6.494164e-005
 6.515800e+000  7.466461e-005  6.493385e-005
 6.524060e+000  8.543917e-005  6.495392e-005
 6.532320e+000  1.116961e-004  6.494044e-005
 6.540580e+000  1.390305e-004  6.488889e-005
 6.548830e+000  1.459630e-004  6.480959e-005
 6.557090e+000  8.602783e-005  6.492992e-005
 6.565350e+000  1.975683e-004  6.493156e-005
 6.573610e+000  8.450187e-005  6.451160e-005
 6.581860e+000  1.477032e-004  6.462469e-005
 6.590120e+000  1.701997e-004  6.451802e-005
 6.598380e+000  4.731316e-005  6.456803e-005
 6.606640e+000  2.089158e-004  6.478104e-005
 6.614890e+000  2.505523e-004  6.480452e-005
 6.623150e+000  1.068740e-004  6.750757e-005
 6.631410e+000  6.931092e-005  6.950893e-005
 6.639670e+000  1.487619e-004  7.083386e-005
 6.647920e+000  9.944566e-005  7.196313e-005
 6.656180e+000  1.318922e-004  7.290934e-005
 6.664440e+000  6.330711e-005  7.436273e-005
 6.672700e+000  1.039621e-004  7.537427e-005
 6.680950e+000  1.902585e-004  7.626463e-005
 6.689210e+000  4.432698e-005  7.738173e-005
 6.697470e+000  2.381090e-004  7.848220e-005
 6.705730e+000  1.438784e-004  7.959460e-005
 6.713990e+000  2.044207e-004  8.035885e-005
 6.722240e+000  1.092443e-004  8.169050e-005
 6.730500e+000  1.273915e-005  8.224412e-005
 6.738760e+000  2.793482e-004  8.418735e-005
 6.747020e+000  1.447799e-005  8.467610e-005
 6.755270e+000  1.238667e-004  8.526084e-005
 6.763530e+000  2.092186e-004  8.652404e-005
 6.771790e+000  8.964268e-005  8.689097e-005
 6.780050e+000  1.517539e-004  8.759069e-005
 6.788300e+000  1.462987e-004  8.886128e-005
 6.796560e+000  1.750275e-004  9.035516e-005
 6.804820e+000  2.833874e-004  9.117505e-005
 6.813080e+000  1.743275e-004  9.204732e-005
 6.821330e+000  2.234737e-004  9.398592e-005
 6.829590e+000  1.371359e-005  9.476106e-005
 6.837850e+000  1.718656e-004  9.598276e-005
 6.846110e+000  1.761335e-004  9.753585e-005
 6.854360e+000  1.533470e-004  9.905983e-005
 6.862620e+000  2.241781e-004  1.007115e-004
 6.870880e+000  3.684438e-005  1.005899e-004
 6.879140e+000  1.966009e-004  1.025875e-004
 6.887390e+000  1.973125e-004  1.046468e-004
 6.895650e+000  1.685351e-004  1.052549e-004
 6.903910e+000  1.169327e-005  1.072919e-004
 6.912170e+000  1.005001e-004  1.096386e-004
 6.920420e+000  8.295734e-005  1.116630e-004
 6.928680e+000  8.501910e-005  1.125959e-004
 6.936940e+000  2.090272e-004  1.161565e-004
 6.945200e+000  2.749004e-006  1.179157e-004
 6.953450e+000  5.911502e-005  1.203970e-004
 6.961710e+000  2.142966e-004  1.251196e-004
 6.969970e+000  1.977654e-004  1.279109e-004
 6.978230e+000  1.418566e-004  1.300175e-004
 6.986480e+000  1.450128e-004  1.305005e-004
 6.994740e+000  1.688452e-004  1.330802e-004
 7.003000e+000 -9.757108e-005  1.349084e-004
 7.011260e+000  8.856395e-005  1.356710e-004
 7.019510e+000  3.483477e-004  1.421528e-004
 7.027770e+000 -2.780752e-004  1.473940e-004
 7.036030e+000  3.839890e-005  1.492425e-004
 7.044290e+000  2.219392e-004  1.550922e-004
 7.052540e+000 -6.781782e-005  1.618141e-004
 7.060800e+000  1.416366e-004  1.677609e-004
 7.069060e+000  1.613683e-004  1.709846e-004
 7.077320e+000  1.094958e-004  1.800140e-004
 7.085570e+000 -1.026433e-004  1.822436e-004
 7.093830e+000  6.915803e-005  1.848231e-004
 7.096590e+000  3.112019e-004  1.892908e-004
range-from: 43.0000
range-to: 711.2500
Bragg Angle [mrad]: 10.9539
Concentration [mg/ml]: 1.0125
Contrast [10^10cm^-2]: 2.953
Detector Distance [m]: 3.0
Detector Name: pilatus6m
Diode 1: .0000
Diode 2: .0000
Exposure Delay [s]: 0.000
Exposure period [s]: 0.100
Exposure time [s]: 0.095
PETRA Current: 100.5782
Partial Specific Volume [cm^3/g]: 0.732
QBPM 1: .0000
Run Number: 14.2500
SC Current Temperature: 12.6150
SC Target Temperature: 12.5000
SEU Current Temperature: 20.1625
SEU Horizontal Position: 1.800
SEU Target Temperature: 20.0
SEU Vertical Position: 3.3900
Transmitted Beam (mean): .6810
Wavelength [nm]: .1244
angular-axis-file: etc/radial-averaging/saxs-2/saxis_saxs2_20181018.dat
angular-unit: nanometer
beam-center-x: 1151.3
beam-center-y: 2407.9
beamstop-mask-file: etc/radial-averaging/saxs-2/mask_saxs2_20181018.msk
channel-first: 7
channel-last: 2636
databsolute-cell: monitoring/data/cap_0002_00001.dat
databsolute-factor: 5.55419E-05
databsolute-temperature: 1.01000E+01
databsolute-water: monitoring/data/h2o_0002_00001.dat
detector-response-file: none
flatfield-file: none
unit-time: 100.0000
working-directory: .1244
Description: Pol1_CMJ
parent: C:/Users/jeffries/Desktop/p3l-garcia/RNA_Polymerase_Kosinski_EMBO_course/Concentration_series/P1_1_P1_Buffer_0013.dat
parent: C:/Users/jeffries/Desktop/p3l-garcia/RNA_Polymerase_Kosinski_EMBO_course/Concentration_series/P1_2_P1_Buffer_0016.dat
parent: C:/Users/jeffries/Desktop/p3l-garcia/RNA_Polymerase_Kosinski_EMBO_course/Concentration_series/P1_3_P1_Buffer_0019.dat
parent: C:/Users/jeffries/Desktop/p3l-garcia/RNA_Polymerase_Kosinski_EMBO_course/PolymeraseP1_P1_buffer_0009.dat
parent:
parent:
creator: datmerge
creator-version: v0.3 (r10552)
datmerge-scale: .9990
datmerge-scale: .9987
datmerge-scale: 1.0000
datmerge-scale: .9996